TrialNumber,Completed,Timestamp Before Black Screen,Black Screen Duration,Timestamp First Choice Shown,Timestamp First Decision,First Choice Reaction Time,First Choice,Common Transition,Second Stage,Timestamp Second Choice Shown,Timestamp Second Decision,Second Decision Reaction Time,Second Choice,Reward Probability,Reward,Timestamp End
1,yes,09/30/2021 12:12:08,00:00:00.5895940,09/30/2021 12:12:09,09/30/2021 12:12:11,00:00:01.8014050,First A,yes,Second 2,09/30/2021 12:12:12,09/30/2021 12:12:14,00:00:01.5902580,Second 2 B,30.0%,yes,09/30/2021 12:12:17
2,yes,09/30/2021 12:12:17,00:00:01.5554750,09/30/2021 12:12:18,09/30/2021 12:12:19,00:00:01.0352490,First A,yes,Second 2,09/30/2021 12:12:21,09/30/2021 12:12:22,00:00:01.1979470,Second 2 B,30.0%,no,09/30/2021 12:12:25
3,yes,09/30/2021 12:12:25,00:00:02.1222670,09/30/2021 12:12:27,09/30/2021 12:12:28,00:00:01.3018600,First A,yes,Second 2,09/30/2021 12:12:30,09/30/2021 12:12:31,00:00:01.2277510,Second 2 B,30.0%,no,09/30/2021 12:12:34
4,yes,09/30/2021 12:12:34,00:00:00.2001480,09/30/2021 12:12:34,09/30/2021 12:12:36,00:00:01.3152580,First A,no,Second 1,09/30/2021 12:12:37,09/30/2021 12:12:39,00:00:01.7343270,Second 1 A,30.0%,yes,09/30/2021 12:12:42
5,yes,09/30/2021 12:12:42,00:00:04.4459040,09/30/2021 12:12:46,09/30/2021 12:12:48,00:00:01.2666310,First B,yes,Second 1,09/30/2021 12:12:49,09/30/2021 12:12:50,00:00:01.1666000,Second 1 A,30.0%,yes,09/30/2021 12:12:53
6,yes,09/30/2021 12:12:53,00:00:02.5420260,09/30/2021 12:12:56,09/30/2021 12:12:57,00:00:00.9996500,First B,yes,Second 1,09/30/2021 12:12:58,09/30/2021 12:12:59,00:00:01.1161860,Second 1 A,30.0%,no,09/30/2021 12:13:02
7,yes,09/30/2021 12:13:02,00:00:02.5755600,09/30/2021 12:13:05,09/30/2021 12:13:06,00:00:01.1000620,First B,yes,Second 1,09/30/2021 12:13:08,09/30/2021 12:13:09,00:00:01.1308710,Second 1 A,30.0%,no,09/30/2021 12:13:12
8,yes,09/30/2021 12:13:12,00:00:02.0244750,09/30/2021 12:13:14,09/30/2021 12:13:15,00:00:01.3142720,First B,no,Second 2,09/30/2021 12:13:17,09/30/2021 12:13:18,00:00:01.4342890,Second 2 B,30.0%,no,09/30/2021 12:13:21
9,yes,09/30/2021 12:13:21,00:00:00.3862270,09/30/2021 12:13:21,09/30/2021 12:13:23,00:00:01.0623810,First B,yes,Second 1,09/30/2021 12:13:24,09/30/2021 12:13:25,00:00:00.9363900,Second 1 A,30.0%,no,09/30/2021 12:13:28
10,yes,09/30/2021 12:13:28,00:00:01.4857290,09/30/2021 12:13:29,09/30/2021 12:13:30,00:00:00.9329220,First A,yes,Second 2,09/30/2021 12:13:32,09/30/2021 12:13:33,00:00:01.2855050,Second 2 B,30.0%,yes,09/30/2021 12:13:36
11,yes,09/30/2021 12:13:36,00:00:01.2209780,09/30/2021 12:13:37,09/30/2021 12:13:39,00:00:01.3169750,First A,yes,Second 2,09/30/2021 12:13:40,09/30/2021 12:13:41,00:00:01.0812360,Second 2 B,30.0%,yes,09/30/2021 12:13:44
12,yes,09/30/2021 12:13:44,00:00:00.0869990,09/30/2021 12:13:44,09/30/2021 12:13:45,00:00:01.0304040,First A,no,Second 1,09/30/2021 12:13:47,09/30/2021 12:13:48,00:00:01.1176030,Second 1 A,30.0%,no,09/30/2021 12:13:51
13,yes,09/30/2021 12:13:51,00:00:01.0368260,09/30/2021 12:13:52,09/30/2021 12:13:53,00:00:00.9650120,First A,yes,Second 2,09/30/2021 12:13:55,09/30/2021 12:13:56,00:00:01.0628040,Second 2 B,30.0%,no,09/30/2021 12:13:59
14,yes,09/30/2021 12:13:59,00:00:01.6704820,09/30/2021 12:14:00,09/30/2021 12:14:01,00:00:00.9663830,First A,no,Second 1,09/30/2021 12:14:03,09/30/2021 12:14:04,00:00:00.9602010,Second 1 A,30.0%,no,09/30/2021 12:14:07
15,yes,09/30/2021 12:14:07,00:00:08.1695850,09/30/2021 12:14:15,09/30/2021 12:14:16,00:00:00.9819310,First A,no,Second 1,09/30/2021 12:14:17,09/30/2021 12:14:19,00:00:01.3823050,Second 1 A,30.0%,no,09/30/2021 12:14:22
16,yes,09/30/2021 12:14:22,00:00:00.7355660,09/30/2021 12:14:23,09/30/2021 12:14:24,00:00:00.9667290,First A,yes,Second 2,09/30/2021 12:14:25,09/30/2021 12:14:26,00:00:01.0632770,Second 2 B,30.0%,yes,09/30/2021 12:14:29
17,yes,09/30/2021 12:14:29,00:00:00.9185070,09/30/2021 12:14:30,09/30/2021 12:14:31,00:00:01.0523720,First A,yes,Second 2,09/30/2021 12:14:33,09/30/2021 12:14:34,00:00:00.9680360,Second 2 B,30.0%,no,09/30/2021 12:14:37
18,yes,09/30/2021 12:14:37,00:00:01.5580380,09/30/2021 12:14:38,09/30/2021 12:14:39,00:00:01.0501500,First A,no,Second 1,09/30/2021 12:14:41,09/30/2021 12:14:42,00:00:01.0294790,Second 1 A,30.0%,no,09/30/2021 12:14:45
19,yes,09/30/2021 12:14:45,00:00:00.6842960,09/30/2021 12:14:45,09/30/2021 12:14:46,00:00:01.0660850,First A,yes,Second 2,09/30/2021 12:14:48,09/30/2021 12:14:49,00:00:00.9845030,Second 2 B,30.0%,no,09/30/2021 12:14:52
20,yes,09/30/2021 12:14:52,00:00:00.1389720,09/30/2021 12:14:52,09/30/2021 12:14:53,00:00:01.1632480,First B,yes,Second 1,09/30/2021 12:14:55,09/30/2021 12:14:56,00:00:01.0151380,Second 1 A,30.0%,yes,09/30/2021 12:14:59
21,yes,09/30/2021 12:14:59,00:00:10.0080680,09/30/2021 12:15:09,09/30/2021 12:15:10,00:00:00.9982010,First B,yes,Second 1,09/30/2021 12:15:11,09/30/2021 12:15:13,00:00:01.4959820,Second 1 A,30.0%,no,09/30/2021 12:15:16
22,yes,09/30/2021 12:15:16,00:00:00.1382950,09/30/2021 12:15:16,09/30/2021 12:15:17,00:00:01.0794090,First B,yes,Second 1,09/30/2021 12:15:19,09/30/2021 12:15:20,00:00:01.0506040,Second 1 A,30.0%,yes,09/30/2021 12:15:23
23,yes,09/30/2021 12:15:23,00:00:00.2325050,09/30/2021 12:15:23,09/30/2021 12:15:24,00:00:01.1149750,First B,yes,Second 1,09/30/2021 12:15:25,09/30/2021 12:15:27,00:00:01.0147550,Second 1 A,30.0%,no,09/30/2021 12:15:30
24,yes,09/30/2021 12:15:30,00:00:01.2532080,09/30/2021 12:15:31,09/30/2021 12:15:32,00:00:01.0971630,First B,yes,Second 1,09/30/2021 12:15:33,09/30/2021 12:15:34,00:00:01.0146910,Second 1 A,30.0%,no,09/30/2021 12:15:37
25,yes,09/30/2021 12:15:37,00:00:02.0071470,09/30/2021 12:15:39,09/30/2021 12:15:40,00:00:01.0344910,First B,no,Second 2,09/30/2021 12:15:42,09/30/2021 12:15:43,00:00:01.3680990,Second 2 B,30.0%,no,09/30/2021 12:15:46
26,yes,09/30/2021 12:15:46,00:00:03.8090750,09/30/2021 12:15:50,09/30/2021 12:15:52,00:00:01.7325020,First A,yes,Second 2,09/30/2021 12:15:53,09/30/2021 12:15:54,00:00:00.9649220,Second 2 B,30.0%,no,09/30/2021 12:15:57
27,yes,09/30/2021 12:15:57,00:00:02.7401800,09/30/2021 12:16:00,09/30/2021 12:16:01,00:00:01.0497050,First A,no,Second 1,09/30/2021 12:16:03,09/30/2021 12:16:04,00:00:01.2303710,Second 1 B,70.0%,no,09/30/2021 12:16:07
28,yes,09/30/2021 12:16:07,00:00:01.4689320,09/30/2021 12:16:08,09/30/2021 12:16:09,00:00:00.9190340,First A,yes,Second 2,09/30/2021 12:16:11,09/30/2021 12:16:12,00:00:01.4636250,Second 2 A,30.0%,yes,09/30/2021 12:16:15
29,yes,09/30/2021 12:16:15,00:00:00.9983000,09/30/2021 12:16:16,09/30/2021 12:16:17,00:00:01.0818400,First A,no,Second 1,09/30/2021 12:16:19,09/30/2021 12:16:20,00:00:01.5337500,Second 1 B,70.0%,yes,09/30/2021 12:16:23
30,yes,09/30/2021 12:16:23,00:00:00.8015100,09/30/2021 12:16:24,09/30/2021 12:16:25,00:00:01.1180470,First A,no,Second 1,09/30/2021 12:16:27,09/30/2021 12:16:29,00:00:01.7664060,Second 1 B,70.0%,no,09/30/2021 12:16:32
31,yes,09/30/2021 12:16:32,00:00:01.6923140,09/30/2021 12:16:33,09/30/2021 12:16:34,00:00:01.0146040,First A,yes,Second 2,09/30/2021 12:16:36,09/30/2021 12:16:37,00:00:00.9708880,Second 2 A,30.0%,no,09/30/2021 12:16:40
32,yes,09/30/2021 12:16:40,00:00:04.3956410,09/30/2021 12:16:44,09/30/2021 12:16:45,00:00:01.0479840,First A,yes,Second 2,09/30/2021 12:16:47,09/30/2021 12:16:48,00:00:01.5197030,Second 2 A,30.0%,yes,09/30/2021 12:16:51
33,yes,09/30/2021 12:16:51,00:00:02.1922480,09/30/2021 12:16:53,09/30/2021 12:16:54,00:00:01.0472780,First A,no,Second 1,09/30/2021 12:16:56,09/30/2021 12:16:58,00:00:01.6711570,Second 1 A,30.0%,no,09/30/2021 12:17:01
34,yes,09/30/2021 12:17:01,00:00:01.2677120,09/30/2021 12:17:02,09/30/2021 12:17:03,00:00:01.0352560,First A,yes,Second 2,09/30/2021 12:17:04,09/30/2021 12:17:06,00:00:01.3141900,Second 2 A,30.0%,no,09/30/2021 12:17:09
35,yes,09/30/2021 12:17:09,00:00:01.8511520,09/30/2021 12:17:11,09/30/2021 12:17:12,00:00:01.0019150,First A,yes,Second 2,09/30/2021 12:17:13,09/30/2021 12:17:14,00:00:01.0116420,Second 2 A,30.0%,yes,09/30/2021 12:17:17
36,yes,09/30/2021 12:17:17,00:00:02.3752300,09/30/2021 12:17:20,09/30/2021 12:17:21,00:00:01.0166350,First A,yes,Second 2,09/30/2021 12:17:22,09/30/2021 12:17:23,00:00:01.1014190,Second 2 A,30.0%,yes,09/30/2021 12:17:26
37,yes,09/30/2021 12:17:26,00:00:01.3038140,09/30/2021 12:17:28,09/30/2021 12:17:29,00:00:01.1795160,First A,yes,Second 2,09/30/2021 12:17:30,09/30/2021 12:17:31,00:00:00.8813930,Second 2 A,30.0%,yes,09/30/2021 12:17:34
38,yes,09/30/2021 12:17:34,00:00:00.9048120,09/30/2021 12:17:35,09/30/2021 12:17:36,00:00:00.9662890,First A,yes,Second 2,09/30/2021 12:17:37,09/30/2021 12:17:38,00:00:01.0156030,Second 2 A,30.0%,no,09/30/2021 12:17:41
39,yes,09/30/2021 12:17:41,00:00:01.9011090,09/30/2021 12:17:43,09/30/2021 12:17:44,00:00:00.9355430,First A,yes,Second 2,09/30/2021 12:17:46,09/30/2021 12:17:47,00:00:00.9516970,Second 2 A,30.0%,no,09/30/2021 12:17:50
40,yes,09/30/2021 12:17:50,00:00:00.1162420,09/30/2021 12:17:50,09/30/2021 12:17:51,00:00:01.0819110,First A,no,Second 1,09/30/2021 12:17:52,09/30/2021 12:17:54,00:00:01.5191820,Second 1 A,30.0%,no,09/30/2021 12:17:57
41,yes,09/30/2021 12:17:57,00:00:00.1817760,09/30/2021 12:17:57,09/30/2021 12:17:58,00:00:00.9964720,First A,no,Second 1,09/30/2021 12:18:00,09/30/2021 12:18:01,00:00:00.9967020,Second 1 A,30.0%,no,09/30/2021 12:18:04
42,yes,09/30/2021 12:18:04,00:00:01.0001430,09/30/2021 12:18:05,09/30/2021 12:18:06,00:00:01.1817840,First A,yes,Second 2,09/30/2021 12:18:07,09/30/2021 12:18:08,00:00:00.9675410,Second 2 A,30.0%,no,09/30/2021 12:18:11
43,yes,09/30/2021 12:18:11,00:00:01.4551440,09/30/2021 12:18:13,09/30/2021 12:18:14,00:00:00.8839960,First B,yes,Second 1,09/30/2021 12:18:15,09/30/2021 12:18:16,00:00:01.0956880,Second 1 B,70.0%,no,09/30/2021 12:18:19
44,yes,09/30/2021 12:18:19,00:00:00.6224110,09/30/2021 12:18:20,09/30/2021 12:18:21,00:00:00.8828120,First B,no,Second 2,09/30/2021 12:18:22,09/30/2021 12:18:24,00:00:01.8028980,Second 2 A,30.0%,no,09/30/2021 12:18:27
45,yes,09/30/2021 12:18:27,00:00:06.3694660,09/30/2021 12:18:34,09/30/2021 12:18:35,00:00:01.2968820,First B,no,Second 2,09/30/2021 12:18:36,09/30/2021 12:18:38,00:00:01.3177700,Second 2 A,30.0%,no,09/30/2021 12:18:41
46,yes,09/30/2021 12:18:41,00:00:04.0403950,09/30/2021 12:18:45,09/30/2021 12:18:46,00:00:01.1841580,First B,yes,Second 1,09/30/2021 12:18:47,09/30/2021 12:18:49,00:00:01.5804820,Second 1 B,70.0%,no,09/30/2021 12:18:52
47,yes,09/30/2021 12:18:52,00:00:02.9553570,09/30/2021 12:18:55,09/30/2021 12:18:56,00:00:01.1475600,First B,yes,Second 1,09/30/2021 12:18:58,09/30/2021 12:18:59,00:00:01.0507050,Second 1 B,70.0%,no,09/30/2021 12:19:02
48,yes,09/30/2021 12:19:02,00:00:14.8633980,09/30/2021 12:19:17,09/30/2021 12:19:18,00:00:01.3042620,First B,no,Second 2,09/30/2021 12:19:19,09/30/2021 12:19:21,00:00:01.5001270,Second 2 B,30.0%,no,09/30/2021 12:19:24
49,yes,09/30/2021 12:19:24,00:00:02.3405320,09/30/2021 12:19:26,09/30/2021 12:19:27,00:00:01.0663660,First B,yes,Second 1,09/30/2021 12:19:29,09/30/2021 12:19:30,00:00:01.0823760,Second 1 A,30.0%,yes,09/30/2021 12:19:33
50,yes,09/30/2021 12:19:33,00:00:02.3759860,09/30/2021 12:19:35,09/30/2021 12:19:36,00:00:01.1118870,First B,yes,Second 1,09/30/2021 12:19:38,09/30/2021 12:19:39,00:00:01.2342180,Second 1 A,30.0%,yes,09/30/2021 12:19:42
51,yes,09/30/2021 12:19:42,00:00:02.5246790,09/30/2021 12:19:45,09/30/2021 12:19:46,00:00:01.1305380,First B,yes,Second 1,09/30/2021 12:19:47,09/30/2021 12:19:48,00:00:01.2183600,Second 1 A,30.0%,no,09/30/2021 12:19:51
52,yes,09/30/2021 12:19:51,00:00:00.1539840,09/30/2021 12:19:52,09/30/2021 12:19:53,00:00:01.4837110,First B,yes,Second 1,09/30/2021 12:19:55,09/30/2021 12:19:56,00:00:01.0509610,Second 1 A,30.0%,yes,09/30/2021 12:19:59
53,yes,09/30/2021 12:19:59,00:00:03.1743670,09/30/2021 12:20:02,09/30/2021 12:20:03,00:00:01.0459810,First B,yes,Second 1,09/30/2021 12:20:04,09/30/2021 12:20:06,00:00:01.5482170,Second 1 A,30.0%,no,09/30/2021 12:20:09
54,yes,09/30/2021 12:20:09,00:00:01.9898740,09/30/2021 12:20:11,09/30/2021 12:20:12,00:00:00.9959460,First B,no,Second 2,09/30/2021 12:20:13,09/30/2021 12:20:15,00:00:01.4838620,Second 2 B,30.0%,no,09/30/2021 12:20:18
55,yes,09/30/2021 12:20:18,00:00:01.5391850,09/30/2021 12:20:19,09/30/2021 12:20:20,00:00:00.9461450,First B,yes,Second 1,09/30/2021 12:20:22,09/30/2021 12:20:24,00:00:01.5660990,Second 1 A,30.0%,no,09/30/2021 12:20:27
56,yes,09/30/2021 12:20:27,00:00:01.6500870,09/30/2021 12:20:28,09/30/2021 12:20:29,00:00:01.2211050,First B,yes,Second 1,09/30/2021 12:20:31,09/30/2021 12:20:32,00:00:01.1157660,Second 1 A,30.0%,yes,09/30/2021 12:20:35
57,yes,09/30/2021 12:20:35,00:00:01.8526620,09/30/2021 12:20:37,09/30/2021 12:20:38,00:00:01.2986560,First B,yes,Second 1,09/30/2021 12:20:40,09/30/2021 12:20:41,00:00:01.1022660,Second 1 A,30.0%,no,09/30/2021 12:20:44
58,yes,09/30/2021 12:20:44,00:00:00.3831520,09/30/2021 12:20:44,09/30/2021 12:20:45,00:00:01.0037040,First B,yes,Second 1,09/30/2021 12:20:47,09/30/2021 12:20:48,00:00:01.1010640,Second 1 A,30.0%,no,09/30/2021 12:20:51
59,yes,09/30/2021 12:20:51,00:00:00.9827760,09/30/2021 12:20:52,09/30/2021 12:20:53,00:00:01.1197370,First A,yes,Second 2,09/30/2021 12:20:54,09/30/2021 12:20:56,00:00:01.1485880,Second 2 A,30.0%,no,09/30/2021 12:20:59
60,yes,09/30/2021 12:20:59,00:00:02.8574620,09/30/2021 12:21:01,09/30/2021 12:21:02,00:00:01.0652960,First A,yes,Second 2,09/30/2021 12:21:04,09/30/2021 12:21:05,00:00:01.0602650,Second 2 B,30.0%,no,09/30/2021 12:21:08
61,yes,09/30/2021 12:21:08,00:00:00.0186280,09/30/2021 12:21:08,09/30/2021 12:21:09,00:00:00.9795840,First A,yes,Second 2,09/30/2021 12:21:11,09/30/2021 12:21:12,00:00:01.0142240,Second 2 B,30.0%,no,09/30/2021 12:21:15
62,yes,09/30/2021 12:21:15,00:00:00.5684800,09/30/2021 12:21:15,09/30/2021 12:21:16,00:00:00.9633950,First A,no,Second 1,09/30/2021 12:21:18,09/30/2021 12:21:19,00:00:01.1654960,Second 1 A,30.0%,no,09/30/2021 12:21:22
63,yes,09/30/2021 12:21:22,00:00:02.3540470,09/30/2021 12:21:24,09/30/2021 12:21:25,00:00:01.0302370,First A,no,Second 1,09/30/2021 12:21:27,09/30/2021 12:21:28,00:00:01.5405560,Second 1 B,70.0%,yes,09/30/2021 12:21:31
64,yes,09/30/2021 12:21:31,00:00:03.3047140,09/30/2021 12:21:35,09/30/2021 12:21:36,00:00:01.0860000,First A,yes,Second 2,09/30/2021 12:21:37,09/30/2021 12:21:38,00:00:00.9653070,Second 2 A,30.0%,no,09/30/2021 12:21:41
65,yes,09/30/2021 12:21:41,00:00:00.3549610,09/30/2021 12:21:41,09/30/2021 12:21:43,00:00:01.1832400,First B,no,Second 2,09/30/2021 12:21:44,09/30/2021 12:21:45,00:00:01.3326260,Second 2 A,30.0%,no,09/30/2021 12:21:49
66,yes,09/30/2021 12:21:49,00:00:03.5881630,09/30/2021 12:21:52,09/30/2021 12:21:53,00:00:01.0816160,First B,no,Second 2,09/30/2021 12:21:55,09/30/2021 12:21:56,00:00:01.5213090,Second 2 A,30.0%,no,09/30/2021 12:21:59
67,yes,09/30/2021 12:21:59,00:00:04.8977810,09/30/2021 12:22:04,09/30/2021 12:22:05,00:00:01.0331520,First B,yes,Second 1,09/30/2021 12:22:07,09/30/2021 12:22:08,00:00:01.4497110,Second 1 A,30.0%,no,09/30/2021 12:22:11
68,yes,09/30/2021 12:22:11,00:00:00.7687740,09/30/2021 12:22:12,09/30/2021 12:22:13,00:00:01.0505070,First B,no,Second 2,09/30/2021 12:22:14,09/30/2021 12:22:16,00:00:01.2133580,Second 2 B,30.0%,no,09/30/2021 12:22:19
69,yes,09/30/2021 12:22:19,00:00:00.6037960,09/30/2021 12:22:19,09/30/2021 12:22:20,00:00:01.0501390,First B,yes,Second 1,09/30/2021 12:22:22,09/30/2021 12:22:23,00:00:01.0296730,Second 1 A,30.0%,no,09/30/2021 12:22:26
70,yes,09/30/2021 12:22:26,00:00:00.2002470,09/30/2021 12:22:26,09/30/2021 12:22:27,00:00:01.0120060,First B,yes,Second 1,09/30/2021 12:22:29,09/30/2021 12:22:30,00:00:01.2163720,Second 1 A,30.0%,no,09/30/2021 12:22:33
71,yes,09/30/2021 12:22:33,00:00:02.1281530,09/30/2021 12:22:35,09/30/2021 12:22:36,00:00:01.3801850,First B,yes,Second 1,09/30/2021 12:22:38,09/30/2021 12:22:39,00:00:01.0141780,Second 1 B,70.0%,yes,09/30/2021 12:22:42
72,yes,09/30/2021 12:22:42,00:00:00.5022470,09/30/2021 12:22:42,09/30/2021 12:22:43,00:00:01.0996640,First B,yes,Second 1,09/30/2021 12:22:45,09/30/2021 12:22:46,00:00:01.0624820,Second 1 B,70.0%,yes,09/30/2021 12:22:49
73,yes,09/30/2021 12:22:49,00:00:01.1705870,09/30/2021 12:22:50,09/30/2021 12:22:51,00:00:01.2330180,First B,yes,Second 1,09/30/2021 12:22:53,09/30/2021 12:22:54,00:00:01.1012400,Second 1 B,70.0%,yes,09/30/2021 12:22:57
74,yes,09/30/2021 12:22:57,00:00:01.7228440,09/30/2021 12:22:59,09/30/2021 12:23:00,00:00:01.1486920,First B,no,Second 2,09/30/2021 12:23:01,09/30/2021 12:23:03,00:00:01.4839040,Second 2 A,30.0%,yes,09/30/2021 12:23:06
75,yes,09/30/2021 12:23:06,00:00:00.0322180,09/30/2021 12:23:06,09/30/2021 12:23:07,00:00:01.1337450,First B,yes,Second 1,09/30/2021 12:23:09,09/30/2021 12:23:10,00:00:01.0137440,Second 1 B,70.0%,yes,09/30/2021 12:23:13
76,yes,09/30/2021 12:23:13,00:00:00.0502400,09/30/2021 12:23:13,09/30/2021 12:23:14,00:00:01.0642430,First B,yes,Second 1,09/30/2021 12:23:15,09/30/2021 12:23:16,00:00:00.9462620,Second 1 B,70.0%,yes,09/30/2021 12:23:19
77,yes,09/30/2021 12:23:19,00:00:00.6009470,09/30/2021 12:23:20,09/30/2021 12:23:21,00:00:01.1510670,First B,no,Second 2,09/30/2021 12:23:22,09/30/2021 12:23:24,00:00:01.3124990,Second 2 A,30.0%,yes,09/30/2021 12:23:27
78,yes,09/30/2021 12:23:27,00:00:00.9104760,09/30/2021 12:23:28,09/30/2021 12:23:29,00:00:01.0427540,First B,yes,Second 1,09/30/2021 12:23:30,09/30/2021 12:23:31,00:00:00.8809010,Second 1 B,70.0%,no,09/30/2021 12:23:34
79,yes,09/30/2021 12:23:34,00:00:04.2400630,09/30/2021 12:23:38,09/30/2021 12:23:39,00:00:00.9200270,First B,yes,Second 1,09/30/2021 12:23:41,09/30/2021 12:23:42,00:00:00.9344770,Second 1 B,70.0%,yes,09/30/2021 12:23:45
80,yes,09/30/2021 12:23:45,00:00:01.2347860,09/30/2021 12:23:46,09/30/2021 12:23:48,00:00:01.5652700,First B,no,Second 2,09/30/2021 12:23:49,09/30/2021 12:23:50,00:00:01.2825800,Second 2 A,30.0%,no,09/30/2021 12:23:53
81,yes,09/30/2021 12:23:53,00:00:01.5214300,09/30/2021 12:23:55,09/30/2021 12:23:56,00:00:00.9831030,First B,no,Second 2,09/30/2021 12:23:57,09/30/2021 12:23:59,00:00:01.1850910,Second 2 A,30.0%,no,09/30/2021 12:24:02
82,yes,09/30/2021 12:24:02,00:00:01.4208120,09/30/2021 12:24:03,09/30/2021 12:24:04,00:00:01.1689550,First B,yes,Second 1,09/30/2021 12:24:06,09/30/2021 12:24:07,00:00:01.0989740,Second 1 B,70.0%,yes,09/30/2021 12:24:10
83,yes,09/30/2021 12:24:10,00:00:00.9713240,09/30/2021 12:24:11,09/30/2021 12:24:12,00:00:01.1499270,First B,yes,Second 1,09/30/2021 12:24:13,09/30/2021 12:24:14,00:00:01.0354270,Second 1 B,70.0%,yes,09/30/2021 12:24:17
84,yes,09/30/2021 12:24:17,00:00:00.1540550,09/30/2021 12:24:18,09/30/2021 12:24:19,00:00:01.1644410,First B,yes,Second 1,09/30/2021 12:24:20,09/30/2021 12:24:21,00:00:01.0011690,Second 1 B,70.0%,yes,09/30/2021 12:24:24
85,yes,09/30/2021 12:24:24,00:00:00.4016750,09/30/2021 12:24:25,09/30/2021 12:24:26,00:00:01.3169530,First B,yes,Second 1,09/30/2021 12:24:27,09/30/2021 12:24:28,00:00:00.9675460,Second 1 B,70.0%,no,09/30/2021 12:24:31
86,yes,09/30/2021 12:24:31,00:00:01.3388060,09/30/2021 12:24:33,09/30/2021 12:24:34,00:00:01.0167890,First B,yes,Second 1,09/30/2021 12:24:35,09/30/2021 12:24:36,00:00:00.9321150,Second 1 B,70.0%,yes,09/30/2021 12:24:39
87,yes,09/30/2021 12:24:39,00:00:03.6036470,09/30/2021 12:24:43,09/30/2021 12:24:44,00:00:01.2034130,First B,yes,Second 1,09/30/2021 12:24:46,09/30/2021 12:24:47,00:00:01.1316160,Second 1 B,70.0%,yes,09/30/2021 12:24:50
88,yes,09/30/2021 12:24:50,00:00:01.6370940,09/30/2021 12:24:51,09/30/2021 12:24:52,00:00:01.0308940,First B,no,Second 2,09/30/2021 12:24:54,09/30/2021 12:24:55,00:00:01.1148340,Second 2 A,30.0%,no,09/30/2021 12:24:58
89,yes,09/30/2021 12:24:58,00:00:01.8200780,09/30/2021 12:25:00,09/30/2021 12:25:01,00:00:00.9493270,First B,no,Second 2,09/30/2021 12:25:02,09/30/2021 12:25:03,00:00:01.0001040,Second 2 A,30.0%,no,09/30/2021 12:25:06
90,yes,09/30/2021 12:25:06,00:00:01.4215900,09/30/2021 12:25:08,09/30/2021 12:25:09,00:00:01.2347980,First B,yes,Second 1,09/30/2021 12:25:10,09/30/2021 12:25:11,00:00:00.9663800,Second 1 B,70.0%,no,09/30/2021 12:25:14
91,yes,09/30/2021 12:25:14,00:00:06.2316130,09/30/2021 12:25:21,09/30/2021 12:25:22,00:00:00.9996490,First B,no,Second 2,09/30/2021 12:25:23,09/30/2021 12:25:24,00:00:01.0809270,Second 2 A,30.0%,no,09/30/2021 12:25:27
92,yes,09/30/2021 12:25:27,00:00:00.4038880,09/30/2021 12:25:28,09/30/2021 12:25:29,00:00:00.9630000,First B,yes,Second 1,09/30/2021 12:25:30,09/30/2021 12:25:31,00:00:00.9613730,Second 1 B,70.0%,no,09/30/2021 12:25:34
93,yes,09/30/2021 12:25:34,00:00:00.1700940,09/30/2021 12:25:34,09/30/2021 12:25:35,00:00:00.8629930,First B,no,Second 2,09/30/2021 12:25:37,09/30/2021 12:25:38,00:00:01.1693820,Second 2 A,30.0%,no,09/30/2021 12:25:41
94,yes,09/30/2021 12:25:41,00:00:01.4689650,09/30/2021 12:25:42,09/30/2021 12:25:43,00:00:01.0834110,First B,yes,Second 1,09/30/2021 12:25:45,09/30/2021 12:25:46,00:00:01.0333840,Second 1 B,70.0%,yes,09/30/2021 12:25:49
95,yes,09/30/2021 12:25:49,00:00:01.2983350,09/30/2021 12:25:50,09/30/2021 12:25:51,00:00:01.1655170,First B,yes,Second 1,09/30/2021 12:25:53,09/30/2021 12:25:54,00:00:01.0502440,Second 1 B,70.0%,yes,09/30/2021 12:25:57
96,yes,09/30/2021 12:25:57,00:00:00.1328690,09/30/2021 12:25:57,09/30/2021 12:25:58,00:00:01.1190430,First B,no,Second 2,09/30/2021 12:26:00,09/30/2021 12:26:01,00:00:01.1116670,Second 2 A,30.0%,yes,09/30/2021 12:26:04
97,yes,09/30/2021 12:26:04,00:00:02.7403040,09/30/2021 12:26:07,09/30/2021 12:26:08,00:00:01.1308530,First B,yes,Second 1,09/30/2021 12:26:09,09/30/2021 12:26:10,00:00:01.0659070,Second 1 B,70.0%,no,09/30/2021 12:26:13
98,yes,09/30/2021 12:26:13,00:00:00.4796240,09/30/2021 12:26:14,09/30/2021 12:26:15,00:00:01.0654350,First B,no,Second 2,09/30/2021 12:26:16,09/30/2021 12:26:18,00:00:01.2182310,Second 2 A,30.0%,no,09/30/2021 12:26:21
99,yes,09/30/2021 12:26:21,00:00:00.0369820,09/30/2021 12:26:21,09/30/2021 12:26:22,00:00:01.0672360,First B,no,Second 2,09/30/2021 12:26:23,09/30/2021 12:26:24,00:00:00.9989750,Second 2 A,30.0%,no,09/30/2021 12:26:27
100,yes,09/30/2021 12:26:27,00:00:02.2194020,09/30/2021 12:26:29,09/30/2021 12:26:30,00:00:00.9851030,First B,yes,Second 1,09/30/2021 12:26:32,09/30/2021 12:26:33,00:00:00.9708150,Second 1 B,70.0%,yes,09/30/2021 12:26:36
101,yes,09/30/2021 12:26:36,00:00:00.8886540,09/30/2021 12:26:37,09/30/2021 12:26:38,00:00:01.1449960,First B,yes,Second 1,09/30/2021 12:26:39,09/30/2021 12:26:40,00:00:01.0835220,Second 1 B,70.0%,no,09/30/2021 12:26:43
102,yes,09/30/2021 12:26:43,00:00:00.2558640,09/30/2021 12:26:44,09/30/2021 12:26:45,00:00:01.0300560,First B,yes,Second 1,09/30/2021 12:26:46,09/30/2021 12:26:47,00:00:00.8942670,Second 1 B,70.0%,yes,09/30/2021 12:26:50
103,yes,09/30/2021 12:26:50,00:00:00.7318400,09/30/2021 12:26:51,09/30/2021 12:26:52,00:00:00.9672080,First B,yes,Second 1,09/30/2021 12:26:53,09/30/2021 12:26:54,00:00:01.0482790,Second 1 B,70.0%,no,09/30/2021 12:26:57
104,yes,09/30/2021 12:26:57,00:00:02.5545710,09/30/2021 12:27:00,09/30/2021 12:27:01,00:00:01.0491250,First B,yes,Second 1,09/30/2021 12:27:03,09/30/2021 12:27:03,00:00:00.9177430,Second 1 B,70.0%,yes,09/30/2021 12:27:06
105,yes,09/30/2021 12:27:06,00:00:00.9493520,09/30/2021 12:27:07,09/30/2021 12:27:08,00:00:00.9828540,First B,yes,Second 1,09/30/2021 12:27:10,09/30/2021 12:27:11,00:00:00.9827120,Second 1 B,70.0%,no,09/30/2021 12:27:14
106,yes,09/30/2021 12:27:14,00:00:01.3377410,09/30/2021 12:27:15,09/30/2021 12:27:16,00:00:01.1632260,First B,yes,Second 1,09/30/2021 12:27:18,09/30/2021 12:27:19,00:00:00.9652750,Second 1 B,70.0%,yes,09/30/2021 12:27:22
107,yes,09/30/2021 12:27:22,00:00:01.2227710,09/30/2021 12:27:23,09/30/2021 12:27:24,00:00:01.0268780,First B,no,Second 2,09/30/2021 12:27:26,09/30/2021 12:27:27,00:00:01.1131900,Second 2 B,30.0%,no,09/30/2021 12:27:30
108,yes,09/30/2021 12:27:30,00:00:00.5186890,09/30/2021 12:27:30,09/30/2021 12:27:31,00:00:01.1468730,First B,yes,Second 1,09/30/2021 12:27:33,09/30/2021 12:27:34,00:00:01.1333500,Second 1 B,70.0%,yes,09/30/2021 12:27:37
109,yes,09/30/2021 12:27:37,00:00:02.5701080,09/30/2021 12:27:40,09/30/2021 12:27:41,00:00:01.0860130,First B,yes,Second 1,09/30/2021 12:27:42,09/30/2021 12:27:43,00:00:00.9159840,Second 1 B,70.0%,no,09/30/2021 12:27:46
110,yes,09/30/2021 12:27:46,00:00:01.5730450,09/30/2021 12:27:48,09/30/2021 12:27:49,00:00:01.0665840,First B,yes,Second 1,09/30/2021 12:27:50,09/30/2021 12:27:52,00:00:01.2662500,Second 1 B,70.0%,yes,09/30/2021 12:27:55
111,yes,09/30/2021 12:27:55,00:00:01.2829360,09/30/2021 12:27:56,09/30/2021 12:27:57,00:00:01.5197880,First B,no,Second 2,09/30/2021 12:27:59,09/30/2021 12:27:59,00:00:00.2971390,Second 2 A,30.0%,no,09/30/2021 12:28:02
112,yes,09/30/2021 12:28:02,00:00:00.7402860,09/30/2021 12:28:03,09/30/2021 12:28:04,00:00:00.9117730,First B,no,Second 2,09/30/2021 12:28:05,09/30/2021 12:28:07,00:00:01.4315570,Second 2 B,30.0%,yes,09/30/2021 12:28:10
113,yes,09/30/2021 12:28:10,00:00:03.2087540,09/30/2021 12:28:13,09/30/2021 12:28:14,00:00:00.8144040,First B,no,Second 2,09/30/2021 12:28:15,09/30/2021 12:28:17,00:00:01.3540730,Second 2 B,30.0%,yes,09/30/2021 12:28:20
114,yes,09/30/2021 12:28:20,00:00:00.1400520,09/30/2021 12:28:20,09/30/2021 12:28:21,00:00:01.1141930,First B,yes,Second 1,09/30/2021 12:28:22,09/30/2021 12:28:23,00:00:00.7995530,Second 1 B,70.0%,yes,09/30/2021 12:28:26
115,yes,09/30/2021 12:28:26,00:00:06.4846860,09/30/2021 12:28:33,09/30/2021 12:28:34,00:00:00.9106780,First B,yes,Second 1,09/30/2021 12:28:35,09/30/2021 12:28:36,00:00:00.6845010,Second 1 B,70.0%,no,09/30/2021 12:28:39
116,yes,09/30/2021 12:28:39,00:00:02.3912130,09/30/2021 12:28:41,09/30/2021 12:28:42,00:00:00.8267600,First B,yes,Second 1,09/30/2021 12:28:44,09/30/2021 12:28:44,00:00:00.6298090,Second 1 B,70.0%,yes,09/30/2021 12:28:47
117,yes,09/30/2021 12:28:47,00:00:00.2854350,09/30/2021 12:28:48,09/30/2021 12:28:48,00:00:00.8992830,First B,no,Second 2,09/30/2021 12:28:50,09/30/2021 12:28:51,00:00:01.1663150,Second 2 B,30.0%,no,09/30/2021 12:28:54
118,yes,09/30/2021 12:28:54,00:00:03.2265800,09/30/2021 12:28:57,09/30/2021 12:28:58,00:00:00.8972440,First B,no,Second 2,09/30/2021 12:29:00,09/30/2021 12:29:01,00:00:01.2488000,Second 2 A,30.0%,no,09/30/2021 12:29:04
119,yes,09/30/2021 12:29:04,00:00:01.3227680,09/30/2021 12:29:05,09/30/2021 12:29:06,00:00:00.8366540,First B,yes,Second 1,09/30/2021 12:29:08,09/30/2021 12:29:09,00:00:00.9645290,Second 1 B,70.0%,no,09/30/2021 12:29:12
120,yes,09/30/2021 12:29:12,00:00:01.6495820,09/30/2021 12:29:13,09/30/2021 12:29:15,00:00:01.3507440,First B,no,Second 2,09/30/2021 12:29:16,09/30/2021 12:29:17,00:00:01.1603230,Second 2 A,30.0%,no,09/30/2021 12:29:20
121,yes,09/30/2021 12:29:20,00:00:00.1340690,09/30/2021 12:29:20,09/30/2021 12:29:22,00:00:01.1168570,First B,yes,Second 1,09/30/2021 12:29:23,09/30/2021 12:29:24,00:00:00.5763350,Second 1 A,30.0%,no,09/30/2021 12:29:27
122,yes,09/30/2021 12:29:27,00:00:01.1346540,09/30/2021 12:29:28,09/30/2021 12:29:29,00:00:01.0986940,First B,yes,Second 1,09/30/2021 12:29:30,09/30/2021 12:29:31,00:00:01.0113750,Second 1 B,70.0%,yes,09/30/2021 12:29:34
123,yes,09/30/2021 12:29:34,00:00:03.5426720,09/30/2021 12:29:38,09/30/2021 12:29:39,00:00:01.3132460,First B,yes,Second 1,09/30/2021 12:29:41,09/30/2021 12:29:42,00:00:00.8470070,Second 1 B,70.0%,no,09/30/2021 12:29:45
124,yes,09/30/2021 12:29:45,00:00:00.6520280,09/30/2021 12:29:45,09/30/2021 12:29:46,00:00:00.8308800,First B,yes,Second 1,09/30/2021 12:29:48,09/30/2021 12:29:48,00:00:00.6145740,Second 1 B,70.0%,no,09/30/2021 12:29:51
125,yes,09/30/2021 12:29:51,00:00:01.1216430,09/30/2021 12:29:52,09/30/2021 12:29:54,00:00:01.3128260,First B,yes,Second 1,09/30/2021 12:29:55,09/30/2021 12:29:57,00:00:01.3534060,Second 1 B,70.0%,no,09/30/2021 12:30:00
126,yes,09/30/2021 12:30:00,00:00:07.4156430,09/30/2021 12:30:07,09/30/2021 12:30:08,00:00:01.4851680,First B,yes,Second 1,09/30/2021 12:30:10,09/30/2021 12:30:11,00:00:01.3675930,Second 1 B,70.0%,yes,09/30/2021 12:30:14
127,yes,09/30/2021 12:30:14,00:00:02.2903720,09/30/2021 12:30:17,09/30/2021 12:30:18,00:00:01.4470700,First B,no,Second 2,09/30/2021 12:30:20,09/30/2021 12:30:21,00:00:01.3322500,Second 2 A,30.0%,yes,09/30/2021 12:30:24
128,yes,09/30/2021 12:30:24,00:00:03.6778130,09/30/2021 12:30:28,09/30/2021 12:30:29,00:00:01.4822630,First B,yes,Second 1,09/30/2021 12:30:31,09/30/2021 12:30:32,00:00:01.3878860,Second 1 B,70.0%,yes,09/30/2021 12:30:35
129,yes,09/30/2021 12:30:35,00:00:01.7413200,09/30/2021 12:30:37,09/30/2021 12:30:38,00:00:01.4967730,First B,yes,Second 1,09/30/2021 12:30:40,09/30/2021 12:30:41,00:00:01.3178320,Second 1 B,70.0%,yes,09/30/2021 12:30:44
130,yes,09/30/2021 12:30:44,00:00:05.2084520,09/30/2021 12:30:49,09/30/2021 12:30:51,00:00:01.3685530,First B,yes,Second 1,09/30/2021 12:30:52,09/30/2021 12:30:54,00:00:01.3705740,Second 1 B,70.0%,yes,09/30/2021 12:30:57
131,yes,09/30/2021 12:30:57,00:00:04.3303270,09/30/2021 12:31:01,09/30/2021 12:31:02,00:00:01.5491370,First B,no,Second 2,09/30/2021 12:31:04,09/30/2021 12:31:05,00:00:01.4141510,Second 2 A,30.0%,no,09/30/2021 12:31:08
132,yes,09/30/2021 12:31:08,00:00:03.7441690,09/30/2021 12:31:12,09/30/2021 12:31:13,00:00:01.2830930,First B,yes,Second 1,09/30/2021 12:31:15,09/30/2021 12:31:16,00:00:01.3529060,Second 1 B,70.0%,yes,09/30/2021 12:31:19
133,no,09/30/2021 12:31:19,00:00:00.8190790,09/30/2021 12:31:20,,,,,,,,,,,,09/30/2021 12:31:22
134,yes,09/30/2021 12:31:22,00:00:01.4811930,09/30/2021 12:31:24,09/30/2021 12:31:25,00:00:01.0663140,First B,yes,Second 1,09/30/2021 12:31:26,09/30/2021 12:31:27,00:00:01.3159720,Second 1 B,70.0%,yes,09/30/2021 12:31:30
135,yes,09/30/2021 12:31:30,00:00:00.3001550,09/30/2021 12:31:31,09/30/2021 12:31:32,00:00:01.4643670,First B,yes,Second 1,09/30/2021 12:31:34,09/30/2021 12:31:35,00:00:01.3364610,Second 1 B,70.0%,yes,09/30/2021 12:31:38
136,yes,09/30/2021 12:31:38,00:00:00.9659140,09/30/2021 12:31:39,09/30/2021 12:31:40,00:00:01.4823180,First B,yes,Second 1,09/30/2021 12:31:42,09/30/2021 12:31:43,00:00:01.2457010,Second 1 B,70.0%,yes,09/30/2021 12:31:46
137,yes,09/30/2021 12:31:46,00:00:00.4552750,09/30/2021 12:31:47,09/30/2021 12:31:48,00:00:01.3765600,First B,yes,Second 1,09/30/2021 12:31:50,09/30/2021 12:31:51,00:00:01.3689110,Second 1 B,70.0%,yes,09/30/2021 12:31:54
138,yes,09/30/2021 12:31:54,00:00:02.5442050,09/30/2021 12:31:57,09/30/2021 12:31:58,00:00:01.4378830,First B,yes,Second 1,09/30/2021 12:31:59,09/30/2021 12:32:01,00:00:01.1451080,Second 1 B,70.0%,no,09/30/2021 12:32:04
139,yes,09/30/2021 12:32:04,00:00:01.0542530,09/30/2021 12:32:05,09/30/2021 12:32:06,00:00:01.1155720,First B,yes,Second 1,09/30/2021 12:32:07,09/30/2021 12:32:08,00:00:01.0820440,Second 1 B,70.0%,yes,09/30/2021 12:32:11
140,yes,09/30/2021 12:32:11,00:00:02.1011000,09/30/2021 12:32:14,09/30/2021 12:32:15,00:00:01.5000040,First B,yes,Second 1,09/30/2021 12:32:17,09/30/2021 12:32:18,00:00:01.3634110,Second 1 B,70.0%,yes,09/30/2021 12:32:21
141,yes,09/30/2021 12:32:21,00:00:00.0341900,09/30/2021 12:32:21,09/30/2021 12:32:22,00:00:01.0459920,First B,no,Second 2,09/30/2021 12:32:23,09/30/2021 12:32:25,00:00:01.3733850,Second 2 B,30.0%,yes,09/30/2021 12:32:28
142,yes,09/30/2021 12:32:28,00:00:02.1872220,09/30/2021 12:32:30,09/30/2021 12:32:31,00:00:01.2974530,First B,yes,Second 1,09/30/2021 12:32:33,09/30/2021 12:32:34,00:00:00.9614590,Second 1 B,70.0%,yes,09/30/2021 12:32:37
143,yes,09/30/2021 12:32:37,00:00:03.8747690,09/30/2021 12:32:41,09/30/2021 12:32:42,00:00:01.5812510,First B,no,Second 2,09/30/2021 12:32:44,09/30/2021 12:32:45,00:00:01.4336130,Second 2 B,30.0%,yes,09/30/2021 12:32:48
144,yes,09/30/2021 12:32:48,00:00:01.1021710,09/30/2021 12:32:49,09/30/2021 12:32:51,00:00:01.4702160,First B,yes,Second 1,09/30/2021 12:32:52,09/30/2021 12:32:54,00:00:01.1898850,Second 1 B,70.0%,yes,09/30/2021 12:32:57
145,yes,09/30/2021 12:32:57,00:00:06.2466590,09/30/2021 12:33:03,09/30/2021 12:33:04,00:00:01.3836800,First B,yes,Second 1,09/30/2021 12:33:06,09/30/2021 12:33:07,00:00:01.3157050,Second 1 B,70.0%,no,09/30/2021 12:33:10
146,yes,09/30/2021 12:33:10,00:00:02.9520260,09/30/2021 12:33:13,09/30/2021 12:33:14,00:00:01.2980010,First B,no,Second 2,09/30/2021 12:33:16,09/30/2021 12:33:17,00:00:01.3319650,Second 2 B,30.0%,no,09/30/2021 12:33:20
147,yes,09/30/2021 12:33:20,00:00:01.3896220,09/30/2021 12:33:21,09/30/2021 12:33:23,00:00:01.1829960,First B,yes,Second 1,09/30/2021 12:33:24,09/30/2021 12:33:26,00:00:01.3531530,Second 1 B,70.0%,no,09/30/2021 12:33:29
148,yes,09/30/2021 12:33:29,00:00:00.3672790,09/30/2021 12:33:29,09/30/2021 12:33:30,00:00:01.3125440,First B,no,Second 2,09/30/2021 12:33:32,09/30/2021 12:33:33,00:00:01.1820690,Second 2 B,30.0%,no,09/30/2021 12:33:36
149,yes,09/30/2021 12:33:36,00:00:01.1829510,09/30/2021 12:33:37,09/30/2021 12:33:38,00:00:01.3833430,First B,yes,Second 1,09/30/2021 12:33:40,09/30/2021 12:33:41,00:00:01.2844180,Second 1 B,70.0%,yes,09/30/2021 12:33:44
150,yes,09/30/2021 12:33:44,00:00:02.8208450,09/30/2021 12:33:47,09/30/2021 12:33:49,00:00:01.5511280,First B,no,Second 2,09/30/2021 12:33:50,09/30/2021 12:33:51,00:00:01.2981930,Second 2 A,30.0%,no,09/30/2021 12:33:54
151,yes,09/30/2021 12:33:54,00:00:00.9873640,09/30/2021 12:33:55,09/30/2021 12:33:57,00:00:01.3138760,First B,no,Second 2,09/30/2021 12:33:58,09/30/2021 12:33:59,00:00:01.1993230,Second 2 B,30.0%,no,09/30/2021 12:34:02
152,yes,09/30/2021 12:34:02,00:00:00.8059220,09/30/2021 12:34:03,09/30/2021 12:34:04,00:00:00.9828180,First B,no,Second 2,09/30/2021 12:34:06,09/30/2021 12:34:07,00:00:01.2863670,Second 2 B,30.0%,no,09/30/2021 12:34:10
153,yes,09/30/2021 12:34:10,00:00:00.5506000,09/30/2021 12:34:11,09/30/2021 12:34:12,00:00:00.9657020,First A,yes,Second 2,09/30/2021 12:34:13,09/30/2021 12:34:14,00:00:01.1435990,Second 2 B,30.0%,yes,09/30/2021 12:34:17
154,yes,09/30/2021 12:34:17,00:00:02.7403270,09/30/2021 12:34:20,09/30/2021 12:34:21,00:00:00.9988890,First A,yes,Second 2,09/30/2021 12:34:22,09/30/2021 12:34:23,00:00:00.9329210,Second 2 B,30.0%,yes,09/30/2021 12:34:26
155,yes,09/30/2021 12:34:26,00:00:00.3362620,09/30/2021 12:34:27,09/30/2021 12:34:28,00:00:00.8488640,First A,no,Second 1,09/30/2021 12:34:29,09/30/2021 12:34:31,00:00:01.5993450,Second 1 A,30.0%,no,09/30/2021 12:34:34
156,yes,09/30/2021 12:34:34,00:00:01.3384770,09/30/2021 12:34:35,09/30/2021 12:34:36,00:00:00.8978050,First A,yes,Second 2,09/30/2021 12:34:37,09/30/2021 12:34:39,00:00:01.4152420,Second 2 B,30.0%,no,09/30/2021 12:34:42
157,yes,09/30/2021 12:34:42,00:00:05.4931340,09/30/2021 12:34:47,09/30/2021 12:34:48,00:00:01.0542610,First A,no,Second 1,09/30/2021 12:34:50,09/30/2021 12:34:52,00:00:01.7516300,Second 1 A,30.0%,no,09/30/2021 12:34:55
158,yes,09/30/2021 12:34:55,00:00:01.6394230,09/30/2021 12:34:56,09/30/2021 12:34:57,00:00:00.9961980,First A,yes,Second 2,09/30/2021 12:34:59,09/30/2021 12:35:00,00:00:01.2331000,Second 2 B,30.0%,yes,09/30/2021 12:35:03
159,yes,09/30/2021 12:35:03,00:00:03.0393860,09/30/2021 12:35:06,09/30/2021 12:35:07,00:00:01.1834200,First B,no,Second 2,09/30/2021 12:35:09,09/30/2021 12:35:10,00:00:01.5122710,Second 2 B,30.0%,yes,09/30/2021 12:35:13
160,yes,09/30/2021 12:35:13,00:00:00.1193080,09/30/2021 12:35:13,09/30/2021 12:35:14,00:00:00.9967700,First B,yes,Second 1,09/30/2021 12:35:16,09/30/2021 12:35:17,00:00:00.7313350,Second 1 B,70.0%,yes,09/30/2021 12:35:20
161,yes,09/30/2021 12:35:20,00:00:02.5059390,09/30/2021 12:35:22,09/30/2021 12:35:23,00:00:00.9633650,First B,no,Second 2,09/30/2021 12:35:25,09/30/2021 12:35:26,00:00:01.1660900,Second 2 B,30.0%,no,09/30/2021 12:35:29
162,yes,09/30/2021 12:35:29,00:00:02.1508640,09/30/2021 12:35:31,09/30/2021 12:35:32,00:00:01.1844950,First B,no,Second 2,09/30/2021 12:35:34,09/30/2021 12:35:35,00:00:01.3504770,Second 2 B,30.0%,yes,09/30/2021 12:35:38
163,yes,09/30/2021 12:35:38,00:00:07.8665540,09/30/2021 12:35:46,09/30/2021 12:35:47,00:00:01.0198150,First B,yes,Second 1,09/30/2021 12:35:48,09/30/2021 12:35:50,00:00:01.1142880,Second 1 B,70.0%,yes,09/30/2021 12:35:53
164,yes,09/30/2021 12:35:53,00:00:03.9578240,09/30/2021 12:35:57,09/30/2021 12:35:58,00:00:01.1312080,First B,yes,Second 1,09/30/2021 12:35:59,09/30/2021 12:36:00,00:00:00.7105340,Second 1 B,70.0%,yes,09/30/2021 12:36:03
165,yes,09/30/2021 12:36:03,00:00:00.2308990,09/30/2021 12:36:03,09/30/2021 12:36:04,00:00:00.8006070,First B,no,Second 2,09/30/2021 12:36:05,09/30/2021 12:36:07,00:00:01.2452980,Second 2 B,30.0%,yes,09/30/2021 12:36:10
166,yes,09/30/2021 12:36:10,00:00:06.5751660,09/30/2021 12:36:16,09/30/2021 12:36:18,00:00:01.2416630,First B,no,Second 2,09/30/2021 12:36:19,09/30/2021 12:36:21,00:00:01.4976500,Second 2 B,30.0%,no,09/30/2021 12:36:24
167,yes,09/30/2021 12:36:24,00:00:02.8933980,09/30/2021 12:36:26,09/30/2021 12:36:28,00:00:01.5167770,First B,yes,Second 1,09/30/2021 12:36:29,09/30/2021 12:36:30,00:00:00.8642990,Second 1 B,70.0%,yes,09/30/2021 12:36:33
168,yes,09/30/2021 12:36:33,00:00:01.5409550,09/30/2021 12:36:35,09/30/2021 12:36:36,00:00:01.5144110,First B,yes,Second 1,09/30/2021 12:36:38,09/30/2021 12:36:39,00:00:01.1986130,Second 1 B,70.0%,no,09/30/2021 12:36:42
169,yes,09/30/2021 12:36:42,00:00:00.3520700,09/30/2021 12:36:42,09/30/2021 12:36:43,00:00:00.9994300,First B,yes,Second 1,09/30/2021 12:36:45,09/30/2021 12:36:46,00:00:00.8362420,Second 1 B,70.0%,yes,09/30/2021 12:36:49
170,yes,09/30/2021 12:36:49,00:00:06.3591010,09/30/2021 12:36:55,09/30/2021 12:36:56,00:00:01.2018360,First B,no,Second 2,09/30/2021 12:36:58,09/30/2021 12:36:59,00:00:01.0309650,Second 2 B,30.0%,no,09/30/2021 12:37:02
171,yes,09/30/2021 12:37:02,00:00:01.2063310,09/30/2021 12:37:03,09/30/2021 12:37:04,00:00:01.0945960,First B,no,Second 2,09/30/2021 12:37:06,09/30/2021 12:37:07,00:00:00.8688430,Second 2 B,30.0%,no,09/30/2021 12:37:10
172,yes,09/30/2021 12:37:10,00:00:01.7548910,09/30/2021 12:37:11,09/30/2021 12:37:12,00:00:00.9810270,First B,no,Second 2,09/30/2021 12:37:14,09/30/2021 12:37:15,00:00:01.0130860,Second 2 B,30.0%,yes,09/30/2021 12:37:18
173,yes,09/30/2021 12:37:18,00:00:02.6030110,09/30/2021 12:37:20,09/30/2021 12:37:21,00:00:00.7834700,First B,yes,Second 1,09/30/2021 12:37:23,09/30/2021 12:37:24,00:00:00.8114390,Second 1 B,70.0%,yes,09/30/2021 12:37:27
174,yes,09/30/2021 12:37:27,00:00:02.8232010,09/30/2021 12:37:29,09/30/2021 12:37:30,00:00:00.9503700,First B,yes,Second 1,09/30/2021 12:37:32,09/30/2021 12:37:33,00:00:00.8997170,Second 1 B,70.0%,yes,09/30/2021 12:37:36
175,yes,09/30/2021 12:37:36,00:00:00.3719010,09/30/2021 12:37:36,09/30/2021 12:37:37,00:00:00.7127560,First B,no,Second 2,09/30/2021 12:37:38,09/30/2021 12:37:39,00:00:00.7889540,Second 2 B,30.0%,no,09/30/2021 12:37:42
176,yes,09/30/2021 12:37:42,00:00:01.9735110,09/30/2021 12:37:44,09/30/2021 12:37:45,00:00:00.7517480,First B,yes,Second 1,09/30/2021 12:37:46,09/30/2021 12:37:47,00:00:00.9855470,Second 1 B,70.0%,yes,09/30/2021 12:37:50
177,yes,09/30/2021 12:37:50,00:00:00.8350240,09/30/2021 12:37:51,09/30/2021 12:37:52,00:00:00.8639140,First B,yes,Second 1,09/30/2021 12:37:54,09/30/2021 12:37:54,00:00:00.9656310,Second 1 B,70.0%,yes,09/30/2021 12:37:57
178,yes,09/30/2021 12:37:57,00:00:00.7518740,09/30/2021 12:37:58,09/30/2021 12:37:59,00:00:00.9010680,First B,no,Second 2,09/30/2021 12:38:01,09/30/2021 12:38:02,00:00:00.8971820,Second 2 B,30.0%,no,09/30/2021 12:38:05
179,yes,09/30/2021 12:38:05,00:00:02.4902990,09/30/2021 12:38:07,09/30/2021 12:38:08,00:00:00.7176230,First B,yes,Second 1,09/30/2021 12:38:09,09/30/2021 12:38:10,00:00:00.8790420,Second 1 B,70.0%,yes,09/30/2021 12:38:13
180,yes,09/30/2021 12:38:13,00:00:06.1462870,09/30/2021 12:38:19,09/30/2021 12:38:20,00:00:00.9763500,First B,no,Second 2,09/30/2021 12:38:22,09/30/2021 12:38:23,00:00:01.0361320,Second 2 B,30.0%,yes,09/30/2021 12:38:26
181,yes,09/30/2021 12:38:26,00:00:00.4701790,09/30/2021 12:38:26,09/30/2021 12:38:28,00:00:01.2982740,First B,yes,Second 1,09/30/2021 12:38:29,09/30/2021 12:38:30,00:00:01.2832360,Second 1 B,70.0%,yes,09/30/2021 12:38:33
182,yes,09/30/2021 12:38:33,00:00:01.8209660,09/30/2021 12:38:35,09/30/2021 12:38:36,00:00:00.9664070,First B,yes,Second 1,09/30/2021 12:38:38,09/30/2021 12:38:39,00:00:00.8288480,Second 1 B,70.0%,yes,09/30/2021 12:38:42
183,yes,09/30/2021 12:38:42,00:00:00.5529040,09/30/2021 12:38:42,09/30/2021 12:38:43,00:00:00.9653540,First B,yes,Second 1,09/30/2021 12:38:45,09/30/2021 12:38:45,00:00:00.7841410,Second 1 B,70.0%,yes,09/30/2021 12:38:48
184,yes,09/30/2021 12:38:48,00:00:05.4975710,09/30/2021 12:38:54,09/30/2021 12:38:55,00:00:00.8471080,First B,yes,Second 1,09/30/2021 12:38:56,09/30/2021 12:38:57,00:00:00.8325990,Second 1 B,70.0%,yes,09/30/2021 12:39:00
185,yes,09/30/2021 12:39:00,00:00:04.8618690,09/30/2021 12:39:05,09/30/2021 12:39:06,00:00:00.7312880,First B,yes,Second 1,09/30/2021 12:39:07,09/30/2021 12:39:08,00:00:01.0458450,Second 1 B,70.0%,yes,09/30/2021 12:39:11
186,yes,09/30/2021 12:39:11,00:00:01.4388790,09/30/2021 12:39:13,09/30/2021 12:39:13,00:00:00.7481750,First B,yes,Second 1,09/30/2021 12:39:15,09/30/2021 12:39:16,00:00:00.7033850,Second 1 B,70.0%,no,09/30/2021 12:39:19
187,yes,09/30/2021 12:39:19,00:00:01.6375960,09/30/2021 12:39:20,09/30/2021 12:39:21,00:00:00.8157610,First B,yes,Second 1,09/30/2021 12:39:23,09/30/2021 12:39:23,00:00:00.8316680,Second 1 B,70.0%,yes,09/30/2021 12:39:26
188,yes,09/30/2021 12:39:26,00:00:00.7891560,09/30/2021 12:39:27,09/30/2021 12:39:28,00:00:00.7913440,First B,yes,Second 1,09/30/2021 12:39:29,09/30/2021 12:39:30,00:00:00.6980980,Second 1 B,70.0%,yes,09/30/2021 12:39:33
189,yes,09/30/2021 12:39:33,00:00:00.6855150,09/30/2021 12:39:34,09/30/2021 12:39:35,00:00:00.8290920,First B,yes,Second 1,09/30/2021 12:39:36,09/30/2021 12:39:37,00:00:00.8141820,Second 1 B,70.0%,no,09/30/2021 12:39:40
190,yes,09/30/2021 12:39:40,00:00:06.1611910,09/30/2021 12:39:46,09/30/2021 12:39:47,00:00:00.7334630,First B,yes,Second 1,09/30/2021 12:39:48,09/30/2021 12:39:49,00:00:00.9982460,Second 1 B,70.0%,yes,09/30/2021 12:39:52
191,yes,09/30/2021 12:39:52,00:00:01.2362940,09/30/2021 12:39:54,09/30/2021 12:39:55,00:00:01.5172000,First B,yes,Second 1,09/30/2021 12:39:57,09/30/2021 12:39:57,00:00:00.7300630,Second 1 B,70.0%,yes,09/30/2021 12:40:00
192,yes,09/30/2021 12:40:00,00:00:00.7033190,09/30/2021 12:40:01,09/30/2021 12:40:02,00:00:00.9678080,First B,yes,Second 1,09/30/2021 12:40:04,09/30/2021 12:40:04,00:00:00.7916160,Second 1 B,70.0%,yes,09/30/2021 12:40:07
193,yes,09/30/2021 12:40:07,00:00:01.2853250,09/30/2021 12:40:09,09/30/2021 12:40:10,00:00:00.8491490,First B,no,Second 2,09/30/2021 12:40:11,09/30/2021 12:40:12,00:00:01.1780120,Second 2 B,30.0%,no,09/30/2021 12:40:15
194,yes,09/30/2021 12:40:15,00:00:01.2809200,09/30/2021 12:40:17,09/30/2021 12:40:17,00:00:00.8016790,First B,no,Second 2,09/30/2021 12:40:19,09/30/2021 12:40:20,00:00:01.6382360,Second 2 B,30.0%,no,09/30/2021 12:40:24
195,yes,09/30/2021 12:40:24,00:00:01.2400990,09/30/2021 12:40:25,09/30/2021 12:40:26,00:00:00.7798630,First B,yes,Second 1,09/30/2021 12:40:27,09/30/2021 12:40:28,00:00:00.7630530,Second 1 B,70.0%,yes,09/30/2021 12:40:31
196,yes,09/30/2021 12:40:31,00:00:04.5625590,09/30/2021 12:40:35,09/30/2021 12:40:36,00:00:00.7958100,First B,no,Second 2,09/30/2021 12:40:38,09/30/2021 12:40:38,00:00:00.8124850,Second 2 B,30.0%,no,09/30/2021 12:40:41
197,yes,09/30/2021 12:40:41,00:00:00.8498350,09/30/2021 12:40:42,09/30/2021 12:40:43,00:00:00.8863890,First B,yes,Second 1,09/30/2021 12:40:45,09/30/2021 12:40:46,00:00:01.1376060,Second 1 B,70.0%,yes,09/30/2021 12:40:49
198,yes,09/30/2021 12:40:49,00:00:03.0430290,09/30/2021 12:40:52,09/30/2021 12:40:53,00:00:01.1788820,First B,yes,Second 1,09/30/2021 12:40:55,09/30/2021 12:40:56,00:00:01.0991370,Second 1 B,70.0%,yes,09/30/2021 12:40:59
199,yes,09/30/2021 12:40:59,00:00:03.1309690,09/30/2021 12:41:02,09/30/2021 12:41:03,00:00:00.7836680,First B,yes,Second 1,09/30/2021 12:41:04,09/30/2021 12:41:05,00:00:00.8655740,Second 1 B,70.0%,yes,09/30/2021 12:41:08
200,yes,09/30/2021 12:41:08,00:00:00.4511550,09/30/2021 12:41:08,09/30/2021 12:41:09,00:00:00.8645870,First B,yes,Second 1,09/30/2021 12:41:11,09/30/2021 12:41:12,00:00:00.6806360,Second 1 B,70.0%,yes,09/30/2021 12:41:15
201,yes,09/30/2021 12:41:15,00:00:01.9405950,09/30/2021 12:41:16,09/30/2021 12:41:17,00:00:00.7994870,First B,yes,Second 1,09/30/2021 12:41:19,09/30/2021 12:41:20,00:00:00.9396350,Second 1 B,70.0%,yes,09/30/2021 12:41:23
202,yes,09/30/2021 12:41:23,00:00:00.6503000,09/30/2021 12:41:23,09/30/2021 12:41:24,00:00:00.9650570,First B,no,Second 2,09/30/2021 12:41:26,09/30/2021 12:41:27,00:00:01.0645620,Second 2 B,30.0%,no,09/30/2021 12:41:30
