TrialNumber,Completed,Timestamp Before Black Screen,Black Screen Duration,Timestamp First Choice Shown,Timestamp First Decision,First Choice Reaction Time,First Choice,Common Transition,Second Stage,Timestamp Second Choice Shown,Timestamp Second Decision,Second Decision Reaction Time,Second Choice,Reward Probability,Reward,Timestamp End
1,yes,09/29/2021 11:27:28,00:00:06.8072040,09/29/2021 11:27:35,09/29/2021 11:27:36,00:00:01.2488340,First A,no,Second 1,09/29/2021 11:27:38,09/29/2021 11:27:39,00:00:01.5481840,Second 1 A,30.0%,no,09/29/2021 11:27:42
2,yes,09/29/2021 11:27:42,00:00:06.4789220,09/29/2021 11:27:49,09/29/2021 11:27:50,00:00:01.0497990,First B,yes,Second 1,09/29/2021 11:27:51,09/29/2021 11:27:52,00:00:01.1176630,Second 1 A,30.0%,no,09/29/2021 11:27:55
3,yes,09/29/2021 11:27:55,00:00:00.0501780,09/29/2021 11:27:55,09/29/2021 11:27:56,00:00:00.9635550,First A,yes,Second 2,09/29/2021 11:27:58,09/29/2021 11:27:59,00:00:01.1167610,Second 2 A,30.0%,no,09/29/2021 11:28:02
4,yes,09/29/2021 11:28:02,00:00:04.7660310,09/29/2021 11:28:07,09/29/2021 11:28:08,00:00:00.9495720,First B,yes,Second 1,09/29/2021 11:28:09,09/29/2021 11:28:10,00:00:00.8493010,Second 1 B,30.0%,no,09/29/2021 11:28:13
5,yes,09/29/2021 11:28:13,00:00:11.0964400,09/29/2021 11:28:24,09/29/2021 11:28:25,00:00:00.9000120,First A,yes,Second 2,09/29/2021 11:28:27,09/29/2021 11:28:28,00:00:01.3163130,Second 2 B,70.0%,yes,09/29/2021 11:28:31
6,yes,09/29/2021 11:28:31,00:00:00.2166990,09/29/2021 11:28:31,09/29/2021 11:28:33,00:00:01.3325150,First B,no,Second 2,09/29/2021 11:28:34,09/29/2021 11:28:35,00:00:00.7972810,Second 2 A,30.0%,yes,09/29/2021 11:28:38
7,yes,09/29/2021 11:28:38,00:00:02.2318810,09/29/2021 11:28:40,09/29/2021 11:28:41,00:00:00.8325320,First A,yes,Second 2,09/29/2021 11:28:42,09/29/2021 11:28:43,00:00:01.0491670,Second 2 B,70.0%,no,09/29/2021 11:28:47
8,yes,09/29/2021 11:28:47,00:00:01.3826840,09/29/2021 11:28:48,09/29/2021 11:28:49,00:00:01.2158620,First B,no,Second 2,09/29/2021 11:28:51,09/29/2021 11:28:52,00:00:00.9143080,Second 2 A,30.0%,yes,09/29/2021 11:28:55
9,yes,09/29/2021 11:28:55,00:00:01.3325990,09/29/2021 11:28:56,09/29/2021 11:28:57,00:00:00.9675340,First B,yes,Second 1,09/29/2021 11:28:58,09/29/2021 11:29:00,00:00:01.3674190,Second 1 A,30.0%,yes,09/29/2021 11:29:03
10,yes,09/29/2021 11:29:03,00:00:00.9168330,09/29/2021 11:29:04,09/29/2021 11:29:05,00:00:00.9991670,First B,no,Second 2,09/29/2021 11:29:06,09/29/2021 11:29:07,00:00:00.9169430,Second 2 A,30.0%,yes,09/29/2021 11:29:10
11,yes,09/29/2021 11:29:10,00:00:00.4514270,09/29/2021 11:29:11,09/29/2021 11:29:12,00:00:00.8645100,First A,yes,Second 2,09/29/2021 11:29:13,09/29/2021 11:29:14,00:00:00.9832730,Second 2 B,70.0%,yes,09/29/2021 11:29:17
12,yes,09/29/2021 11:29:17,00:00:00.7634120,09/29/2021 11:29:18,09/29/2021 11:29:19,00:00:01.1005160,First B,yes,Second 1,09/29/2021 11:29:20,09/29/2021 11:29:22,00:00:01.3832970,Second 1 A,30.0%,no,09/29/2021 11:29:25
13,yes,09/29/2021 11:29:25,00:00:01.7000300,09/29/2021 11:29:27,09/29/2021 11:29:27,00:00:00.8671510,First A,yes,Second 2,09/29/2021 11:29:29,09/29/2021 11:29:30,00:00:01.1669110,Second 2 B,70.0%,yes,09/29/2021 11:29:33
14,yes,09/29/2021 11:29:33,00:00:00.8012030,09/29/2021 11:29:34,09/29/2021 11:29:35,00:00:00.7488630,First A,yes,Second 2,09/29/2021 11:29:36,09/29/2021 11:29:37,00:00:01.2815530,Second 2 B,70.0%,no,09/29/2021 11:29:41
15,yes,09/29/2021 11:29:41,00:00:00.5855490,09/29/2021 11:29:41,09/29/2021 11:29:42,00:00:00.9822220,First B,yes,Second 1,09/29/2021 11:29:44,09/29/2021 11:29:45,00:00:01.1648700,Second 1 B,30.0%,no,09/29/2021 11:29:48
16,yes,09/29/2021 11:29:48,00:00:02.5165050,09/29/2021 11:29:50,09/29/2021 11:29:52,00:00:01.3493160,First A,yes,Second 2,09/29/2021 11:29:53,09/29/2021 11:29:54,00:00:00.8165720,Second 2 B,70.0%,yes,09/29/2021 11:29:57
17,yes,09/29/2021 11:29:57,00:00:02.5499760,09/29/2021 11:30:00,09/29/2021 11:30:00,00:00:00.8652650,First B,yes,Second 1,09/29/2021 11:30:02,09/29/2021 11:30:04,00:00:01.7662820,Second 1 A,30.0%,no,09/29/2021 11:30:07
18,yes,09/29/2021 11:30:07,00:00:07.0795320,09/29/2021 11:30:14,09/29/2021 11:30:15,00:00:00.7503620,First B,no,Second 2,09/29/2021 11:30:16,09/29/2021 11:30:17,00:00:01.0323910,Second 2 A,30.0%,yes,09/29/2021 11:30:20
19,yes,09/29/2021 11:30:20,00:00:00.8496090,09/29/2021 11:30:21,09/29/2021 11:30:22,00:00:00.9996770,First A,no,Second 1,09/29/2021 11:30:24,09/29/2021 11:30:25,00:00:01.4498890,Second 1 B,30.0%,no,09/29/2021 11:30:28
20,yes,09/29/2021 11:30:28,00:00:04.7802880,09/29/2021 11:30:33,09/29/2021 11:30:34,00:00:01.1828180,First B,no,Second 2,09/29/2021 11:30:35,09/29/2021 11:30:36,00:00:00.8500420,Second 2 A,30.0%,yes,09/29/2021 11:30:39
21,yes,09/29/2021 11:30:39,00:00:01.2333640,09/29/2021 11:30:41,09/29/2021 11:30:42,00:00:01.0155120,First A,no,Second 1,09/29/2021 11:30:43,09/29/2021 11:30:44,00:00:01.1813780,Second 1 A,30.0%,no,09/29/2021 11:30:47
22,yes,09/29/2021 11:30:47,00:00:03.1467180,09/29/2021 11:30:50,09/29/2021 11:30:52,00:00:01.1331830,First A,yes,Second 2,09/29/2021 11:30:53,09/29/2021 11:30:54,00:00:01.0812310,Second 2 B,70.0%,no,09/29/2021 11:30:57
23,yes,09/29/2021 11:30:57,00:00:03.0333770,09/29/2021 11:31:00,09/29/2021 11:31:01,00:00:00.8981740,First A,yes,Second 2,09/29/2021 11:31:03,09/29/2021 11:31:04,00:00:01.0827570,Second 2 B,70.0%,yes,09/29/2021 11:31:07
24,yes,09/29/2021 11:31:07,00:00:02.9993680,09/29/2021 11:31:10,09/29/2021 11:31:11,00:00:00.7484380,First B,yes,Second 1,09/29/2021 11:31:12,09/29/2021 11:31:13,00:00:01.2648730,Second 1 B,30.0%,no,09/29/2021 11:31:16
25,yes,09/29/2021 11:31:16,00:00:00.1504520,09/29/2021 11:31:17,09/29/2021 11:31:18,00:00:00.9984550,First B,yes,Second 1,09/29/2021 11:31:19,09/29/2021 11:31:20,00:00:01.2496030,Second 1 A,30.0%,no,09/29/2021 11:31:23
26,yes,09/29/2021 11:31:23,00:00:07.5474690,09/29/2021 11:31:31,09/29/2021 11:31:32,00:00:00.8675850,First B,yes,Second 1,09/29/2021 11:31:33,09/29/2021 11:31:34,00:00:01.2329240,Second 1 B,30.0%,no,09/29/2021 11:31:38
27,yes,09/29/2021 11:31:38,00:00:01.2498550,09/29/2021 11:31:39,09/29/2021 11:31:40,00:00:00.9505970,First A,no,Second 1,09/29/2021 11:31:41,09/29/2021 11:31:43,00:00:01.4498000,Second 1 A,30.0%,yes,09/29/2021 11:31:46
28,yes,09/29/2021 11:31:46,00:00:01.5656020,09/29/2021 11:31:47,09/29/2021 11:31:48,00:00:00.9987910,First A,yes,Second 2,09/29/2021 11:31:50,09/29/2021 11:31:51,00:00:00.7993180,Second 2 B,70.0%,yes,09/29/2021 11:31:54
29,yes,09/29/2021 11:31:54,00:00:03.8134420,09/29/2021 11:31:57,09/29/2021 11:31:58,00:00:00.7676780,First B,yes,Second 1,09/29/2021 11:32:00,09/29/2021 11:32:00,00:00:00.6679200,Second 1 A,30.0%,no,09/29/2021 11:32:03
30,yes,09/29/2021 11:32:03,00:00:00.7002880,09/29/2021 11:32:04,09/29/2021 11:32:05,00:00:00.6988920,First A,no,Second 1,09/29/2021 11:32:06,09/29/2021 11:32:08,00:00:01.2490280,Second 1 B,30.0%,no,09/29/2021 11:32:11
31,yes,09/29/2021 11:32:11,00:00:00.4983800,09/29/2021 11:32:11,09/29/2021 11:32:12,00:00:01.0998280,First B,yes,Second 1,09/29/2021 11:32:14,09/29/2021 11:32:15,00:00:01.2994860,Second 1 B,30.0%,no,09/29/2021 11:32:18
32,yes,09/29/2021 11:32:18,00:00:01.1002290,09/29/2021 11:32:19,09/29/2021 11:32:20,00:00:01.1002380,First A,no,Second 1,09/29/2021 11:32:22,09/29/2021 11:32:23,00:00:00.9853520,Second 1 A,30.0%,yes,09/29/2021 11:32:26
33,yes,09/29/2021 11:32:26,00:00:02.6663020,09/29/2021 11:32:28,09/29/2021 11:32:29,00:00:00.8170180,First B,yes,Second 1,09/29/2021 11:32:31,09/29/2021 11:32:32,00:00:01.2130980,Second 1 A,30.0%,no,09/29/2021 11:32:35
34,yes,09/29/2021 11:32:35,00:00:02.3331720,09/29/2021 11:32:37,09/29/2021 11:32:38,00:00:00.9513130,First B,yes,Second 1,09/29/2021 11:32:40,09/29/2021 11:32:41,00:00:01.1667650,Second 1 B,30.0%,yes,09/29/2021 11:32:44
35,yes,09/29/2021 11:32:44,00:00:08.0957320,09/29/2021 11:32:52,09/29/2021 11:32:53,00:00:00.8019690,First B,yes,Second 1,09/29/2021 11:32:54,09/29/2021 11:32:55,00:00:01.0171840,Second 1 A,30.0%,yes,09/29/2021 11:32:58
36,yes,09/29/2021 11:32:58,00:00:05.8650420,09/29/2021 11:33:04,09/29/2021 11:33:05,00:00:01.0650610,First B,yes,Second 1,09/29/2021 11:33:07,09/29/2021 11:33:08,00:00:00.7829370,Second 1 A,30.0%,no,09/29/2021 11:33:11
37,yes,09/29/2021 11:33:11,00:00:06.1139200,09/29/2021 11:33:17,09/29/2021 11:33:18,00:00:00.7834230,First B,yes,Second 1,09/29/2021 11:33:19,09/29/2021 11:33:20,00:00:00.8166170,Second 1 B,30.0%,no,09/29/2021 11:33:23
38,yes,09/29/2021 11:33:23,00:00:00.1333950,09/29/2021 11:33:23,09/29/2021 11:33:24,00:00:00.9655450,First A,yes,Second 2,09/29/2021 11:33:26,09/29/2021 11:33:27,00:00:01.0153900,Second 2 B,70.0%,yes,09/29/2021 11:33:30
39,yes,09/29/2021 11:33:30,00:00:06.3126070,09/29/2021 11:33:36,09/29/2021 11:33:37,00:00:00.7495790,First A,yes,Second 2,09/29/2021 11:33:38,09/29/2021 11:33:39,00:00:01.0989570,Second 2 B,70.0%,yes,09/29/2021 11:33:42
40,yes,09/29/2021 11:33:42,00:00:00.3500180,09/29/2021 11:33:43,09/29/2021 11:33:44,00:00:00.8333640,First A,yes,Second 2,09/29/2021 11:33:45,09/29/2021 11:33:46,00:00:00.7181460,Second 2 B,70.0%,yes,09/29/2021 11:33:49
41,no,09/29/2021 11:33:49,00:00:03.1482270,09/29/2021 11:33:52,09/29/2021 11:33:53,00:00:00.7649900,First A,no,Second 1,09/29/2021 11:33:54,,,,,,09/29/2021 11:33:56
42,yes,09/29/2021 11:33:56,00:00:02.1101600,09/29/2021 11:33:58,09/29/2021 11:33:59,00:00:00.8667880,First A,yes,Second 2,09/29/2021 11:34:01,09/29/2021 11:34:01,00:00:00.6848460,Second 2 B,70.0%,yes,09/29/2021 11:34:05
43,yes,09/29/2021 11:34:05,00:00:02.4986210,09/29/2021 11:34:07,09/29/2021 11:34:08,00:00:00.8660050,First B,no,Second 2,09/29/2021 11:34:09,09/29/2021 11:34:10,00:00:00.8154090,Second 2 A,30.0%,yes,09/29/2021 11:34:13
44,yes,09/29/2021 11:34:13,00:00:01.2171160,09/29/2021 11:34:14,09/29/2021 11:34:15,00:00:00.7324580,First A,no,Second 1,09/29/2021 11:34:17,09/29/2021 11:34:18,00:00:00.8506370,Second 1 A,30.0%,no,09/29/2021 11:34:21
45,yes,09/29/2021 11:34:21,00:00:02.3503230,09/29/2021 11:34:23,09/29/2021 11:34:24,00:00:00.8662680,First A,yes,Second 2,09/29/2021 11:34:25,09/29/2021 11:34:26,00:00:00.9811410,Second 2 B,70.0%,yes,09/29/2021 11:34:29
46,yes,09/29/2021 11:34:29,00:00:00.5323920,09/29/2021 11:34:30,09/29/2021 11:34:31,00:00:00.7499610,First B,no,Second 2,09/29/2021 11:34:32,09/29/2021 11:34:33,00:00:00.9987880,Second 2 A,30.0%,yes,09/29/2021 11:34:36
47,yes,09/29/2021 11:34:36,00:00:03.2148550,09/29/2021 11:34:39,09/29/2021 11:34:40,00:00:00.7158120,First B,yes,Second 1,09/29/2021 11:34:42,09/29/2021 11:34:43,00:00:00.9488400,Second 1 A,30.0%,no,09/29/2021 11:34:46
48,yes,09/29/2021 11:34:46,00:00:01.6345980,09/29/2021 11:34:47,09/29/2021 11:34:48,00:00:00.8822810,First A,yes,Second 2,09/29/2021 11:34:50,09/29/2021 11:34:51,00:00:01.1485470,Second 2 B,70.0%,yes,09/29/2021 11:34:54
49,yes,09/29/2021 11:34:54,00:00:02.4319180,09/29/2021 11:34:56,09/29/2021 11:34:57,00:00:00.9172010,First B,yes,Second 1,09/29/2021 11:34:59,09/29/2021 11:35:00,00:00:01.0504460,Second 1 B,30.0%,no,09/29/2021 11:35:03
50,yes,09/29/2021 11:35:03,00:00:17.9423490,09/29/2021 11:35:21,09/29/2021 11:35:22,00:00:00.8504100,First A,yes,Second 2,09/29/2021 11:35:23,09/29/2021 11:35:24,00:00:00.9681770,Second 2 B,70.0%,yes,09/29/2021 11:35:27
51,yes,09/29/2021 11:35:27,00:00:00.3999060,09/29/2021 11:35:27,09/29/2021 11:35:28,00:00:00.8672540,First B,no,Second 2,09/29/2021 11:35:30,09/29/2021 11:35:31,00:00:00.8692650,Second 2 A,30.0%,yes,09/29/2021 11:35:34
52,yes,09/29/2021 11:35:34,00:00:02.7005790,09/29/2021 11:35:36,09/29/2021 11:35:37,00:00:00.6165900,First B,yes,Second 1,09/29/2021 11:35:39,09/29/2021 11:35:39,00:00:00.9506260,Second 1 B,30.0%,no,09/29/2021 11:35:43
53,yes,09/29/2021 11:35:43,00:00:00.9500480,09/29/2021 11:35:43,09/29/2021 11:35:44,00:00:00.8988880,First A,yes,Second 2,09/29/2021 11:35:46,09/29/2021 11:35:47,00:00:01.2996020,Second 2 B,70.0%,yes,09/29/2021 11:35:50
54,yes,09/29/2021 11:35:50,00:00:00.6512890,09/29/2021 11:35:51,09/29/2021 11:35:52,00:00:00.8650870,First B,yes,Second 1,09/29/2021 11:35:53,09/29/2021 11:35:54,00:00:00.9999950,Second 1 A,30.0%,no,09/29/2021 11:35:57
55,yes,09/29/2021 11:35:57,00:00:03.7149610,09/29/2021 11:36:01,09/29/2021 11:36:02,00:00:00.7995980,First A,no,Second 1,09/29/2021 11:36:03,09/29/2021 11:36:04,00:00:01.1504050,Second 1 A,30.0%,yes,09/29/2021 11:36:07
56,yes,09/29/2021 11:36:07,00:00:02.1495420,09/29/2021 11:36:10,09/29/2021 11:36:10,00:00:00.8499370,First B,yes,Second 1,09/29/2021 11:36:12,09/29/2021 11:36:13,00:00:01.2832380,Second 1 A,30.0%,no,09/29/2021 11:36:16
57,yes,09/29/2021 11:36:16,00:00:05.4145760,09/29/2021 11:36:22,09/29/2021 11:36:23,00:00:00.7660860,First A,yes,Second 2,09/29/2021 11:36:24,09/29/2021 11:36:25,00:00:00.8826130,Second 2 B,70.0%,yes,09/29/2021 11:36:28
58,yes,09/29/2021 11:36:28,00:00:02.0155420,09/29/2021 11:36:30,09/29/2021 11:36:31,00:00:00.7824460,First A,yes,Second 2,09/29/2021 11:36:32,09/29/2021 11:36:33,00:00:00.8669020,Second 2 B,70.0%,yes,09/29/2021 11:36:36
59,yes,09/29/2021 11:36:36,00:00:03.1994090,09/29/2021 11:36:39,09/29/2021 11:36:40,00:00:01.0491540,First A,yes,Second 2,09/29/2021 11:36:42,09/29/2021 11:36:43,00:00:00.9342540,Second 2 B,70.0%,no,09/29/2021 11:36:46
60,yes,09/29/2021 11:36:46,00:00:00.6639450,09/29/2021 11:36:47,09/29/2021 11:36:47,00:00:00.8504530,First B,yes,Second 1,09/29/2021 11:36:49,09/29/2021 11:36:50,00:00:00.9170890,Second 1 A,30.0%,no,09/29/2021 11:36:53
61,yes,09/29/2021 11:36:53,00:00:01.1654930,09/29/2021 11:36:54,09/29/2021 11:36:55,00:00:00.7492140,First B,no,Second 2,09/29/2021 11:36:56,09/29/2021 11:36:57,00:00:00.8172180,Second 2 A,30.0%,no,09/29/2021 11:37:00
62,yes,09/29/2021 11:37:00,00:00:04.7986590,09/29/2021 11:37:05,09/29/2021 11:37:06,00:00:00.7474220,First B,yes,Second 1,09/29/2021 11:37:07,09/29/2021 11:37:08,00:00:00.7150480,Second 1 B,30.0%,no,09/29/2021 11:37:11
63,yes,09/29/2021 11:37:11,00:00:02.9313660,09/29/2021 11:37:14,09/29/2021 11:37:15,00:00:00.9832930,First B,yes,Second 1,09/29/2021 11:37:16,09/29/2021 11:37:17,00:00:01.0315270,Second 1 A,30.0%,no,09/29/2021 11:37:20
64,yes,09/29/2021 11:37:20,00:00:00.5343310,09/29/2021 11:37:21,09/29/2021 11:37:22,00:00:00.7332200,First B,yes,Second 1,09/29/2021 11:37:23,09/29/2021 11:37:24,00:00:01.1305020,Second 1 A,30.0%,no,09/29/2021 11:37:27
65,yes,09/29/2021 11:37:27,00:00:00.5501940,09/29/2021 11:37:28,09/29/2021 11:37:29,00:00:00.7514050,First A,yes,Second 2,09/29/2021 11:37:30,09/29/2021 11:37:31,00:00:01.1979070,Second 2 A,30.0%,no,09/29/2021 11:37:34
66,yes,09/29/2021 11:37:34,00:00:01.0994330,09/29/2021 11:37:36,09/29/2021 11:37:36,00:00:00.7493540,First A,yes,Second 2,09/29/2021 11:37:38,09/29/2021 11:37:39,00:00:00.7337140,Second 2 B,70.0%,no,09/29/2021 11:37:42
67,yes,09/29/2021 11:37:42,00:00:00.1322000,09/29/2021 11:37:42,09/29/2021 11:37:43,00:00:00.8169210,First B,yes,Second 1,09/29/2021 11:37:44,09/29/2021 11:37:45,00:00:01.0671480,Second 1 B,30.0%,yes,09/29/2021 11:37:48
68,yes,09/29/2021 11:37:48,00:00:06.1658200,09/29/2021 11:37:54,09/29/2021 11:37:55,00:00:00.8324720,First B,yes,Second 1,09/29/2021 11:37:57,09/29/2021 11:37:57,00:00:00.7481620,Second 1 B,30.0%,no,09/29/2021 11:38:00
69,yes,09/29/2021 11:38:00,00:00:00.1510870,09/29/2021 11:38:01,09/29/2021 11:38:02,00:00:00.9321160,First A,yes,Second 2,09/29/2021 11:38:03,09/29/2021 11:38:04,00:00:01.0334580,Second 2 A,30.0%,yes,09/29/2021 11:38:07
70,yes,09/29/2021 11:38:07,00:00:00.7653680,09/29/2021 11:38:08,09/29/2021 11:38:09,00:00:00.9995620,First A,yes,Second 2,09/29/2021 11:38:10,09/29/2021 11:38:12,00:00:01.5657320,Second 2 A,30.0%,yes,09/29/2021 11:38:15
71,yes,09/29/2021 11:38:15,00:00:00.5515670,09/29/2021 11:38:16,09/29/2021 11:38:16,00:00:00.7651830,First A,yes,Second 2,09/29/2021 11:38:18,09/29/2021 11:38:19,00:00:00.7320710,Second 2 A,30.0%,no,09/29/2021 11:38:22
72,yes,09/29/2021 11:38:22,00:00:00.5001430,09/29/2021 11:38:22,09/29/2021 11:38:23,00:00:00.8321730,First B,no,Second 2,09/29/2021 11:38:24,09/29/2021 11:38:25,00:00:01.0667190,Second 2 B,70.0%,yes,09/29/2021 11:38:29
73,yes,09/29/2021 11:38:29,00:00:04.6302600,09/29/2021 11:38:33,09/29/2021 11:38:34,00:00:01.0156190,First B,yes,Second 1,09/29/2021 11:38:36,09/29/2021 11:38:36,00:00:00.6166570,Second 1 B,30.0%,no,09/29/2021 11:38:39
74,yes,09/29/2021 11:38:39,00:00:02.3335730,09/29/2021 11:38:42,09/29/2021 11:38:43,00:00:00.9485280,First A,yes,Second 2,09/29/2021 11:38:44,09/29/2021 11:38:45,00:00:01.3666440,Second 2 A,30.0%,no,09/29/2021 11:38:49
75,yes,09/29/2021 11:38:49,00:00:01.4323100,09/29/2021 11:38:50,09/29/2021 11:38:51,00:00:00.7175000,First A,yes,Second 2,09/29/2021 11:38:52,09/29/2021 11:38:53,00:00:01.2010450,Second 2 B,70.0%,yes,09/29/2021 11:38:56
76,yes,09/29/2021 11:38:56,00:00:02.8323210,09/29/2021 11:38:59,09/29/2021 11:39:00,00:00:00.9164800,First A,yes,Second 2,09/29/2021 11:39:02,09/29/2021 11:39:03,00:00:01.0985230,Second 2 B,70.0%,no,09/29/2021 11:39:06
77,yes,09/29/2021 11:39:06,00:00:00.1179350,09/29/2021 11:39:06,09/29/2021 11:39:07,00:00:01.0669360,First A,yes,Second 2,09/29/2021 11:39:09,09/29/2021 11:39:09,00:00:00.8998020,Second 2 A,30.0%,no,09/29/2021 11:39:12
78,yes,09/29/2021 11:39:12,00:00:04.6186310,09/29/2021 11:39:17,09/29/2021 11:39:18,00:00:00.8147220,First A,no,Second 1,09/29/2021 11:39:19,09/29/2021 11:39:21,00:00:01.1499330,Second 1 B,30.0%,yes,09/29/2021 11:39:24
79,yes,09/29/2021 11:39:24,00:00:02.5649920,09/29/2021 11:39:26,09/29/2021 11:39:27,00:00:00.8997380,First A,yes,Second 2,09/29/2021 11:39:29,09/29/2021 11:39:30,00:00:01.4986490,Second 2 B,70.0%,no,09/29/2021 11:39:33
80,yes,09/29/2021 11:39:33,00:00:00.5015060,09/29/2021 11:39:34,09/29/2021 11:39:35,00:00:00.9483510,First A,yes,Second 2,09/29/2021 11:39:36,09/29/2021 11:39:37,00:00:00.7836150,Second 2 B,70.0%,yes,09/29/2021 11:39:40
81,yes,09/29/2021 11:39:40,00:00:00.4004980,09/29/2021 11:39:40,09/29/2021 11:39:41,00:00:00.9157560,First A,yes,Second 2,09/29/2021 11:39:43,09/29/2021 11:39:43,00:00:00.6003420,Second 2 A,30.0%,yes,09/29/2021 11:39:46
82,yes,09/29/2021 11:39:46,00:00:03.9458680,09/29/2021 11:39:50,09/29/2021 11:39:51,00:00:00.7338340,First A,yes,Second 2,09/29/2021 11:39:53,09/29/2021 11:39:54,00:00:01.1835060,Second 2 B,70.0%,yes,09/29/2021 11:39:57
83,yes,09/29/2021 11:39:57,00:00:02.4166760,09/29/2021 11:39:59,09/29/2021 11:40:00,00:00:00.7163100,First A,yes,Second 2,09/29/2021 11:40:01,09/29/2021 11:40:03,00:00:01.3325080,Second 2 A,30.0%,no,09/29/2021 11:40:06
84,yes,09/29/2021 11:40:06,00:00:00.3650830,09/29/2021 11:40:06,09/29/2021 11:40:07,00:00:00.9846170,First A,yes,Second 2,09/29/2021 11:40:09,09/29/2021 11:40:09,00:00:00.7183550,Second 2 A,30.0%,no,09/29/2021 11:40:12
85,yes,09/29/2021 11:40:12,00:00:02.4811980,09/29/2021 11:40:15,09/29/2021 11:40:16,00:00:00.8660230,First B,no,Second 2,09/29/2021 11:40:17,09/29/2021 11:40:18,00:00:00.9996690,Second 2 A,30.0%,no,09/29/2021 11:40:21
86,yes,09/29/2021 11:40:21,00:00:01.3001250,09/29/2021 11:40:23,09/29/2021 11:40:23,00:00:00.7673870,First B,yes,Second 1,09/29/2021 11:40:25,09/29/2021 11:40:26,00:00:00.8498930,Second 1 B,30.0%,no,09/29/2021 11:40:29
87,yes,09/29/2021 11:40:29,00:00:02.9990640,09/29/2021 11:40:32,09/29/2021 11:40:33,00:00:00.8548520,First B,yes,Second 1,09/29/2021 11:40:34,09/29/2021 11:40:35,00:00:00.8485590,Second 1 A,30.0%,yes,09/29/2021 11:40:38
88,yes,09/29/2021 11:40:38,00:00:02.6973670,09/29/2021 11:40:41,09/29/2021 11:40:42,00:00:01.0165080,First A,yes,Second 2,09/29/2021 11:40:43,09/29/2021 11:40:44,00:00:00.9824060,Second 2 B,70.0%,yes,09/29/2021 11:40:47
89,yes,09/29/2021 11:40:47,00:00:01.2815200,09/29/2021 11:40:49,09/29/2021 11:40:49,00:00:00.8318500,First A,no,Second 1,09/29/2021 11:40:51,09/29/2021 11:40:52,00:00:01.0490790,Second 1 A,30.0%,no,09/29/2021 11:40:55
90,yes,09/29/2021 11:40:55,00:00:06.9313380,09/29/2021 11:41:02,09/29/2021 11:41:03,00:00:01.0475390,First B,yes,Second 1,09/29/2021 11:41:04,09/29/2021 11:41:05,00:00:00.8655710,Second 1 A,30.0%,no,09/29/2021 11:41:08
91,yes,09/29/2021 11:41:08,00:00:00.9171260,09/29/2021 11:41:09,09/29/2021 11:41:10,00:00:01.0981440,First B,no,Second 2,09/29/2021 11:41:12,09/29/2021 11:41:13,00:00:00.7324220,Second 2 B,70.0%,no,09/29/2021 11:41:16
92,yes,09/29/2021 11:41:16,00:00:00.7653490,09/29/2021 11:41:16,09/29/2021 11:41:17,00:00:00.6156590,First B,no,Second 2,09/29/2021 11:41:19,09/29/2021 11:41:19,00:00:00.8981790,Second 2 A,30.0%,no,09/29/2021 11:41:22
93,yes,09/29/2021 11:41:22,00:00:06.2985280,09/29/2021 11:41:29,09/29/2021 11:41:30,00:00:01.0986070,First A,yes,Second 2,09/29/2021 11:41:31,09/29/2021 11:41:32,00:00:00.9503140,Second 2 B,70.0%,yes,09/29/2021 11:41:35
94,yes,09/29/2021 11:41:35,00:00:01.3197180,09/29/2021 11:41:37,09/29/2021 11:41:38,00:00:00.8805390,First A,yes,Second 2,09/29/2021 11:41:39,09/29/2021 11:41:40,00:00:00.9157290,Second 2 B,70.0%,no,09/29/2021 11:41:43
95,yes,09/29/2021 11:41:43,00:00:04.3985360,09/29/2021 11:41:47,09/29/2021 11:41:48,00:00:00.8494120,First A,yes,Second 2,09/29/2021 11:41:50,09/29/2021 11:41:51,00:00:01.0328250,Second 2 B,70.0%,no,09/29/2021 11:41:54
96,yes,09/29/2021 11:41:54,00:00:02.7327480,09/29/2021 11:41:57,09/29/2021 11:41:57,00:00:00.8673450,First A,no,Second 1,09/29/2021 11:41:59,09/29/2021 11:42:00,00:00:01.0823690,Second 1 A,30.0%,yes,09/29/2021 11:42:03
97,yes,09/29/2021 11:42:03,00:00:03.0513610,09/29/2021 11:42:06,09/29/2021 11:42:07,00:00:00.6970660,First A,no,Second 1,09/29/2021 11:42:08,09/29/2021 11:42:09,00:00:00.8513420,Second 1 A,30.0%,yes,09/29/2021 11:42:12
98,yes,09/29/2021 11:42:12,00:00:00.9029430,09/29/2021 11:42:13,09/29/2021 11:42:14,00:00:00.8974530,First A,yes,Second 2,09/29/2021 11:42:16,09/29/2021 11:42:17,00:00:01.2006080,Second 2 B,70.0%,yes,09/29/2021 11:42:20
99,yes,09/29/2021 11:42:20,00:00:02.2986810,09/29/2021 11:42:22,09/29/2021 11:42:23,00:00:01.3150590,First A,no,Second 1,09/29/2021 11:42:25,09/29/2021 11:42:25,00:00:00.5990750,Second 1 B,30.0%,no,09/29/2021 11:42:29
100,yes,09/29/2021 11:42:29,00:00:00.7510700,09/29/2021 11:42:29,09/29/2021 11:42:30,00:00:00.7806120,First A,no,Second 1,09/29/2021 11:42:32,09/29/2021 11:42:32,00:00:00.6662430,Second 1 A,30.0%,no,09/29/2021 11:42:35
101,yes,09/29/2021 11:42:35,00:00:08.1483720,09/29/2021 11:42:43,09/29/2021 11:42:44,00:00:01.0485620,First B,no,Second 2,09/29/2021 11:42:46,09/29/2021 11:42:47,00:00:00.8165580,Second 2 A,30.0%,no,09/29/2021 11:42:50
102,yes,09/29/2021 11:42:50,00:00:04.3483920,09/29/2021 11:42:54,09/29/2021 11:42:55,00:00:00.6156510,First A,no,Second 1,09/29/2021 11:42:56,09/29/2021 11:42:57,00:00:00.9996380,Second 1 B,30.0%,no,09/29/2021 11:43:00
103,yes,09/29/2021 11:43:00,00:00:02.4009020,09/29/2021 11:43:03,09/29/2021 11:43:04,00:00:00.7811170,First A,yes,Second 2,09/29/2021 11:43:05,09/29/2021 11:43:06,00:00:01.1502560,Second 2 B,70.0%,no,09/29/2021 11:43:09
104,yes,09/29/2021 11:43:09,00:00:00.7667030,09/29/2021 11:43:10,09/29/2021 11:43:11,00:00:00.8170070,First B,yes,Second 1,09/29/2021 11:43:12,09/29/2021 11:43:14,00:00:01.3336880,Second 1 B,30.0%,no,09/29/2021 11:43:17
105,yes,09/29/2021 11:43:17,00:00:00.4842360,09/29/2021 11:43:17,09/29/2021 11:43:18,00:00:01.0333310,First B,yes,Second 1,09/29/2021 11:43:20,09/29/2021 11:43:21,00:00:00.9339920,Second 1 A,30.0%,no,09/29/2021 11:43:24
106,yes,09/29/2021 11:43:24,00:00:01.4497670,09/29/2021 11:43:25,09/29/2021 11:43:26,00:00:00.7497470,First A,no,Second 1,09/29/2021 11:43:27,09/29/2021 11:43:28,00:00:00.9493510,Second 1 A,30.0%,no,09/29/2021 11:43:31
107,yes,09/29/2021 11:43:31,00:00:01.9001740,09/29/2021 11:43:33,09/29/2021 11:43:34,00:00:01.0318760,First B,yes,Second 1,09/29/2021 11:43:36,09/29/2021 11:43:37,00:00:00.9991600,Second 1 B,30.0%,no,09/29/2021 11:43:40
108,yes,09/29/2021 11:43:40,00:00:07.1294760,09/29/2021 11:43:47,09/29/2021 11:43:48,00:00:00.8994760,First A,no,Second 1,09/29/2021 11:43:49,09/29/2021 11:43:50,00:00:00.8819450,Second 1 A,30.0%,no,09/29/2021 11:43:53
109,yes,09/29/2021 11:43:53,00:00:00.5686180,09/29/2021 11:43:54,09/29/2021 11:43:55,00:00:00.8653120,First A,yes,Second 2,09/29/2021 11:43:56,09/29/2021 11:43:57,00:00:00.8837620,Second 2 B,70.0%,yes,09/29/2021 11:44:00
110,yes,09/29/2021 11:44:00,00:00:00.2332180,09/29/2021 11:44:00,09/29/2021 11:44:02,00:00:01.2986970,First A,yes,Second 2,09/29/2021 11:44:03,09/29/2021 11:44:04,00:00:00.8681800,Second 2 B,70.0%,yes,09/29/2021 11:44:07
111,yes,09/29/2021 11:44:07,00:00:01.5318550,09/29/2021 11:44:09,09/29/2021 11:44:10,00:00:01.5507630,First A,yes,Second 2,09/29/2021 11:44:12,09/29/2021 11:44:13,00:00:01.0309070,Second 2 B,70.0%,no,09/29/2021 11:44:16
112,yes,09/29/2021 11:44:16,00:00:01.7327860,09/29/2021 11:44:18,09/29/2021 11:44:18,00:00:00.7499340,First B,yes,Second 1,09/29/2021 11:44:20,09/29/2021 11:44:21,00:00:01.0164480,Second 1 B,30.0%,no,09/29/2021 11:44:24
113,yes,09/29/2021 11:44:24,00:00:00.0661190,09/29/2021 11:44:24,09/29/2021 11:44:25,00:00:00.6007450,First B,no,Second 2,09/29/2021 11:44:26,09/29/2021 11:44:27,00:00:01.0165310,Second 2 A,30.0%,yes,09/29/2021 11:44:30
114,yes,09/29/2021 11:44:30,00:00:01.8332090,09/29/2021 11:44:32,09/29/2021 11:44:33,00:00:00.8331160,First B,yes,Second 1,09/29/2021 11:44:34,09/29/2021 11:44:35,00:00:01.1473980,Second 1 A,30.0%,no,09/29/2021 11:44:38
115,yes,09/29/2021 11:44:38,00:00:05.6785500,09/29/2021 11:44:44,09/29/2021 11:44:45,00:00:00.9495390,First B,no,Second 2,09/29/2021 11:44:47,09/29/2021 11:44:47,00:00:00.9000180,Second 2 A,30.0%,no,09/29/2021 11:44:51
116,yes,09/29/2021 11:44:51,00:00:00.8833800,09/29/2021 11:44:51,09/29/2021 11:44:52,00:00:00.8493920,First B,yes,Second 1,09/29/2021 11:44:54,09/29/2021 11:44:55,00:00:00.7500120,Second 1 B,30.0%,no,09/29/2021 11:44:58
117,yes,09/29/2021 11:44:58,00:00:01.0510710,09/29/2021 11:44:59,09/29/2021 11:44:59,00:00:00.8492920,First B,yes,Second 1,09/29/2021 11:45:01,09/29/2021 11:45:02,00:00:00.8164490,Second 1 A,30.0%,yes,09/29/2021 11:45:05
118,yes,09/29/2021 11:45:05,00:00:00.6825530,09/29/2021 11:45:05,09/29/2021 11:45:06,00:00:00.8835090,First A,yes,Second 2,09/29/2021 11:45:08,09/29/2021 11:45:09,00:00:00.7317020,Second 2 A,30.0%,no,09/29/2021 11:45:12
119,yes,09/29/2021 11:45:12,00:00:02.8978670,09/29/2021 11:45:15,09/29/2021 11:45:15,00:00:00.7836970,First A,yes,Second 2,09/29/2021 11:45:17,09/29/2021 11:45:18,00:00:00.8159510,Second 2 A,30.0%,no,09/29/2021 11:45:21
120,yes,09/29/2021 11:45:21,00:00:01.8505670,09/29/2021 11:45:23,09/29/2021 11:45:24,00:00:00.9677260,First A,no,Second 1,09/29/2021 11:45:25,09/29/2021 11:45:26,00:00:00.8834920,Second 1 A,30.0%,no,09/29/2021 11:45:29
121,yes,09/29/2021 11:45:29,00:00:01.5324430,09/29/2021 11:45:30,09/29/2021 11:45:31,00:00:00.7981050,First B,yes,Second 1,09/29/2021 11:45:33,09/29/2021 11:45:34,00:00:01.0484460,Second 1 A,30.0%,yes,09/29/2021 11:45:37
122,yes,09/29/2021 11:45:37,00:00:00.1015870,09/29/2021 11:45:37,09/29/2021 11:45:38,00:00:00.9452540,First A,yes,Second 2,09/29/2021 11:45:39,09/29/2021 11:45:40,00:00:00.9492030,Second 2 B,70.0%,yes,09/29/2021 11:45:43
123,yes,09/29/2021 11:45:43,00:00:01.4984210,09/29/2021 11:45:45,09/29/2021 11:45:46,00:00:00.7500190,First B,no,Second 2,09/29/2021 11:45:47,09/29/2021 11:45:48,00:00:00.8831840,Second 2 B,70.0%,no,09/29/2021 11:45:51
124,yes,09/29/2021 11:45:51,00:00:00.2013340,09/29/2021 11:45:51,09/29/2021 11:45:52,00:00:01.0827870,First A,no,Second 1,09/29/2021 11:45:54,09/29/2021 11:45:55,00:00:00.8665960,Second 1 A,30.0%,no,09/29/2021 11:45:58
125,yes,09/29/2021 11:45:58,00:00:00.4821540,09/29/2021 11:45:58,09/29/2021 11:45:59,00:00:00.7523780,First B,yes,Second 1,09/29/2021 11:46:01,09/29/2021 11:46:01,00:00:00.8158220,Second 1 A,30.0%,yes,09/29/2021 11:46:04
126,yes,09/29/2021 11:46:04,00:00:03.8656900,09/29/2021 11:46:08,09/29/2021 11:46:09,00:00:00.8997160,First B,yes,Second 1,09/29/2021 11:46:11,09/29/2021 11:46:11,00:00:00.8327330,Second 1 A,30.0%,no,09/29/2021 11:46:15
127,yes,09/29/2021 11:46:15,00:00:00.9664800,09/29/2021 11:46:15,09/29/2021 11:46:16,00:00:00.8331830,First B,yes,Second 1,09/29/2021 11:46:18,09/29/2021 11:46:19,00:00:00.9498930,Second 1 B,30.0%,yes,09/29/2021 11:46:22
128,yes,09/29/2021 11:46:22,00:00:03.2324830,09/29/2021 11:46:25,09/29/2021 11:46:26,00:00:00.8989000,First A,yes,Second 2,09/29/2021 11:46:27,09/29/2021 11:46:29,00:00:01.2334210,Second 2 B,70.0%,yes,09/29/2021 11:46:32
129,yes,09/29/2021 11:46:32,00:00:00.5325870,09/29/2021 11:46:32,09/29/2021 11:46:33,00:00:00.7524590,First A,yes,Second 2,09/29/2021 11:46:35,09/29/2021 11:46:35,00:00:00.6992090,Second 2 B,70.0%,yes,09/29/2021 11:46:38
130,yes,09/29/2021 11:46:38,00:00:02.6991320,09/29/2021 11:46:41,09/29/2021 11:46:42,00:00:01.2001930,First B,yes,Second 1,09/29/2021 11:46:44,09/29/2021 11:46:45,00:00:00.9684210,Second 1 A,30.0%,yes,09/29/2021 11:46:48
131,yes,09/29/2021 11:46:48,00:00:00.2854100,09/29/2021 11:46:48,09/29/2021 11:46:49,00:00:00.7955280,First B,no,Second 2,09/29/2021 11:46:50,09/29/2021 11:46:51,00:00:01.2172410,Second 2 B,70.0%,yes,09/29/2021 11:46:55
132,yes,09/29/2021 11:46:55,00:00:02.0473040,09/29/2021 11:46:57,09/29/2021 11:46:57,00:00:00.8008910,First A,no,Second 1,09/29/2021 11:46:59,09/29/2021 11:47:00,00:00:01.0011070,Second 1 A,30.0%,no,09/29/2021 11:47:03
133,yes,09/29/2021 11:47:03,00:00:01.3464600,09/29/2021 11:47:04,09/29/2021 11:47:05,00:00:00.6847960,First A,no,Second 1,09/29/2021 11:47:06,09/29/2021 11:47:07,00:00:00.7665640,Second 1 B,30.0%,no,09/29/2021 11:47:10
134,yes,09/29/2021 11:47:10,00:00:00.1175530,09/29/2021 11:47:10,09/29/2021 11:47:11,00:00:00.8157640,First B,yes,Second 1,09/29/2021 11:47:13,09/29/2021 11:47:14,00:00:00.9682250,Second 1 B,30.0%,yes,09/29/2021 11:47:17
135,yes,09/29/2021 11:47:17,00:00:01.1322050,09/29/2021 11:47:18,09/29/2021 11:47:19,00:00:00.7674000,First B,yes,Second 1,09/29/2021 11:47:20,09/29/2021 11:47:21,00:00:00.6337070,Second 1 B,30.0%,no,09/29/2021 11:47:24
136,yes,09/29/2021 11:47:24,00:00:00.0999500,09/29/2021 11:47:24,09/29/2021 11:47:25,00:00:00.6831440,First A,no,Second 1,09/29/2021 11:47:26,09/29/2021 11:47:27,00:00:00.8671630,Second 1 A,30.0%,no,09/29/2021 11:47:30
137,yes,09/29/2021 11:47:30,00:00:00.2674680,09/29/2021 11:47:30,09/29/2021 11:47:32,00:00:01.3337620,First B,no,Second 2,09/29/2021 11:47:33,09/29/2021 11:47:34,00:00:00.9177530,Second 2 A,30.0%,no,09/29/2021 11:47:37
138,yes,09/29/2021 11:47:37,00:00:00.5487290,09/29/2021 11:47:38,09/29/2021 11:47:38,00:00:00.8001010,First B,yes,Second 1,09/29/2021 11:47:40,09/29/2021 11:47:41,00:00:00.8853740,Second 1 B,30.0%,no,09/29/2021 11:47:44
139,yes,09/29/2021 11:47:44,00:00:01.8311520,09/29/2021 11:47:46,09/29/2021 11:47:46,00:00:00.5865520,First B,yes,Second 1,09/29/2021 11:47:48,09/29/2021 11:47:49,00:00:00.8326650,Second 1 B,30.0%,no,09/29/2021 11:47:52
140,yes,09/29/2021 11:47:52,00:00:02.4830360,09/29/2021 11:47:54,09/29/2021 11:47:55,00:00:00.9325340,First B,no,Second 2,09/29/2021 11:47:57,09/29/2021 11:47:58,00:00:01.3646120,Second 2 A,30.0%,no,09/29/2021 11:48:01
141,yes,09/29/2021 11:48:01,00:00:00.9341450,09/29/2021 11:48:02,09/29/2021 11:48:03,00:00:00.8150630,First B,yes,Second 1,09/29/2021 11:48:04,09/29/2021 11:48:05,00:00:00.7834330,Second 1 A,30.0%,yes,09/29/2021 11:48:08
142,yes,09/29/2021 11:48:08,00:00:01.6337710,09/29/2021 11:48:10,09/29/2021 11:48:11,00:00:01.1318930,First B,yes,Second 1,09/29/2021 11:48:12,09/29/2021 11:48:13,00:00:01.1326150,Second 1 A,30.0%,no,09/29/2021 11:48:16
143,yes,09/29/2021 11:48:16,00:00:00.1500690,09/29/2021 11:48:17,09/29/2021 11:48:17,00:00:00.7341210,First B,no,Second 2,09/29/2021 11:48:19,09/29/2021 11:48:20,00:00:00.7837230,Second 2 A,30.0%,no,09/29/2021 11:48:23
144,yes,09/29/2021 11:48:23,00:00:00.5342790,09/29/2021 11:48:23,09/29/2021 11:48:24,00:00:00.6155850,First B,no,Second 2,09/29/2021 11:48:25,09/29/2021 11:48:26,00:00:00.8165500,Second 2 B,70.0%,no,09/29/2021 11:48:29
145,yes,09/29/2021 11:48:29,00:00:04.7457380,09/29/2021 11:48:34,09/29/2021 11:48:35,00:00:00.9315550,First A,no,Second 1,09/29/2021 11:48:36,09/29/2021 11:48:37,00:00:01.0172370,Second 1 B,30.0%,no,09/29/2021 11:48:40
146,yes,09/29/2021 11:48:40,00:00:00.3842070,09/29/2021 11:48:41,09/29/2021 11:48:42,00:00:01.0827640,First A,yes,Second 2,09/29/2021 11:48:43,09/29/2021 11:48:45,00:00:01.2625640,Second 2 A,30.0%,no,09/29/2021 11:48:48
147,yes,09/29/2021 11:48:48,00:00:00.5004520,09/29/2021 11:48:48,09/29/2021 11:48:50,00:00:01.2844770,First A,yes,Second 2,09/29/2021 11:48:51,09/29/2021 11:48:52,00:00:01.1341010,Second 2 B,70.0%,yes,09/29/2021 11:48:55
148,yes,09/29/2021 11:48:55,00:00:02.4496830,09/29/2021 11:48:58,09/29/2021 11:48:59,00:00:01.0316610,First A,yes,Second 2,09/29/2021 11:49:00,09/29/2021 11:49:01,00:00:01.0174840,Second 2 B,70.0%,yes,09/29/2021 11:49:04
149,yes,09/29/2021 11:49:04,00:00:03.8152400,09/29/2021 11:49:08,09/29/2021 11:49:09,00:00:00.7828550,First A,yes,Second 2,09/29/2021 11:49:10,09/29/2021 11:49:11,00:00:01.0159470,Second 2 B,70.0%,yes,09/29/2021 11:49:14
150,yes,09/29/2021 11:49:14,00:00:01.8830230,09/29/2021 11:49:16,09/29/2021 11:49:17,00:00:00.8329160,First A,no,Second 1,09/29/2021 11:49:19,09/29/2021 11:49:20,00:00:00.9321630,Second 1 B,30.0%,no,09/29/2021 11:49:23
151,yes,09/29/2021 11:49:23,00:00:02.1994960,09/29/2021 11:49:25,09/29/2021 11:49:26,00:00:00.7862260,First A,yes,Second 2,09/29/2021 11:49:27,09/29/2021 11:49:28,00:00:00.9994540,Second 2 B,70.0%,yes,09/29/2021 11:49:31
152,yes,09/29/2021 11:49:31,00:00:09.3281260,09/29/2021 11:49:40,09/29/2021 11:49:41,00:00:00.7002110,First A,yes,Second 2,09/29/2021 11:49:43,09/29/2021 11:49:44,00:00:01.0159270,Second 2 B,70.0%,yes,09/29/2021 11:49:47
153,yes,09/29/2021 11:49:47,00:00:02.1997960,09/29/2021 11:49:49,09/29/2021 11:49:50,00:00:00.6169440,First A,no,Second 1,09/29/2021 11:49:51,09/29/2021 11:49:52,00:00:01.3494980,Second 1 A,30.0%,no,09/29/2021 11:49:55
154,yes,09/29/2021 11:49:55,00:00:01.9162140,09/29/2021 11:49:57,09/29/2021 11:49:58,00:00:00.6668620,First A,yes,Second 2,09/29/2021 11:50:00,09/29/2021 11:50:00,00:00:00.8998250,Second 2 B,70.0%,no,09/29/2021 11:50:03
155,yes,09/29/2021 11:50:03,00:00:01.4165770,09/29/2021 11:50:05,09/29/2021 11:50:06,00:00:00.7664750,First A,no,Second 1,09/29/2021 11:50:07,09/29/2021 11:50:08,00:00:00.9331880,Second 1 A,30.0%,no,09/29/2021 11:50:11
156,yes,09/29/2021 11:50:11,00:00:02.2656870,09/29/2021 11:50:13,09/29/2021 11:50:14,00:00:01.0006110,First B,yes,Second 1,09/29/2021 11:50:16,09/29/2021 11:50:17,00:00:01.0324170,Second 1 A,30.0%,yes,09/29/2021 11:50:20
157,yes,09/29/2021 11:50:20,00:00:00.0498920,09/29/2021 11:50:20,09/29/2021 11:50:21,00:00:00.7498010,First B,yes,Second 1,09/29/2021 11:50:22,09/29/2021 11:50:23,00:00:00.8491380,Second 1 A,30.0%,yes,09/29/2021 11:50:26
158,yes,09/29/2021 11:50:26,00:00:04.3959490,09/29/2021 11:50:31,09/29/2021 11:50:32,00:00:01.2662890,First B,no,Second 2,09/29/2021 11:50:33,09/29/2021 11:50:35,00:00:01.3165480,Second 2 A,30.0%,no,09/29/2021 11:50:38
159,yes,09/29/2021 11:50:38,00:00:02.6671730,09/29/2021 11:50:40,09/29/2021 11:50:41,00:00:00.7494050,First B,yes,Second 1,09/29/2021 11:50:43,09/29/2021 11:50:43,00:00:00.7495960,Second 1 A,30.0%,no,09/29/2021 11:50:46
160,yes,09/29/2021 11:50:46,00:00:01.3500000,09/29/2021 11:50:48,09/29/2021 11:50:48,00:00:00.6339270,First B,no,Second 2,09/29/2021 11:50:50,09/29/2021 11:50:51,00:00:01.0657520,Second 2 B,70.0%,yes,09/29/2021 11:50:54
161,yes,09/29/2021 11:50:54,00:00:02.0478410,09/29/2021 11:50:56,09/29/2021 11:50:57,00:00:00.7521320,First B,no,Second 2,09/29/2021 11:50:58,09/29/2021 11:50:59,00:00:00.6658710,Second 2 B,70.0%,no,09/29/2021 11:51:02
162,yes,09/29/2021 11:51:02,00:00:02.5332880,09/29/2021 11:51:05,09/29/2021 11:51:06,00:00:01.2815140,First A,no,Second 1,09/29/2021 11:51:07,09/29/2021 11:51:08,00:00:00.9160880,Second 1 A,30.0%,yes,09/29/2021 11:51:11
163,yes,09/29/2021 11:51:11,00:00:01.1488400,09/29/2021 11:51:12,09/29/2021 11:51:13,00:00:00.8180200,First A,yes,Second 2,09/29/2021 11:51:15,09/29/2021 11:51:16,00:00:01.1659370,Second 2 B,70.0%,yes,09/29/2021 11:51:19
164,yes,09/29/2021 11:51:19,00:00:03.7333680,09/29/2021 11:51:23,09/29/2021 11:51:24,00:00:00.9322360,First A,yes,Second 2,09/29/2021 11:51:25,09/29/2021 11:51:26,00:00:00.7997280,Second 2 B,70.0%,yes,09/29/2021 11:51:29
165,yes,09/29/2021 11:51:29,00:00:00.2665510,09/29/2021 11:51:29,09/29/2021 11:51:30,00:00:00.8990130,First A,yes,Second 2,09/29/2021 11:51:32,09/29/2021 11:51:33,00:00:00.8498440,Second 2 B,70.0%,yes,09/29/2021 11:51:36
166,yes,09/29/2021 11:51:36,00:00:06.2980580,09/29/2021 11:51:42,09/29/2021 11:51:43,00:00:00.9020080,First A,yes,Second 2,09/29/2021 11:51:44,09/29/2021 11:51:45,00:00:00.7176760,Second 2 B,70.0%,yes,09/29/2021 11:51:48
167,yes,09/29/2021 11:51:48,00:00:02.7150790,09/29/2021 11:51:51,09/29/2021 11:51:52,00:00:00.8340710,First A,yes,Second 2,09/29/2021 11:51:53,09/29/2021 11:51:54,00:00:00.8672610,Second 2 B,70.0%,yes,09/29/2021 11:51:57
168,yes,09/29/2021 11:51:57,00:00:03.1827490,09/29/2021 11:52:00,09/29/2021 11:52:01,00:00:00.7857320,First A,no,Second 1,09/29/2021 11:52:02,09/29/2021 11:52:03,00:00:00.9508450,Second 1 A,30.0%,no,09/29/2021 11:52:06
169,yes,09/29/2021 11:52:06,00:00:01.7986330,09/29/2021 11:52:08,09/29/2021 11:52:09,00:00:00.7829980,First A,yes,Second 2,09/29/2021 11:52:11,09/29/2021 11:52:11,00:00:00.8821910,Second 2 B,70.0%,no,09/29/2021 11:52:14
170,yes,09/29/2021 11:52:14,00:00:00.3655320,09/29/2021 11:52:15,09/29/2021 11:52:16,00:00:00.7346850,First A,yes,Second 2,09/29/2021 11:52:17,09/29/2021 11:52:18,00:00:00.7335420,Second 2 A,30.0%,no,09/29/2021 11:52:21
171,yes,09/29/2021 11:52:21,00:00:00.5001710,09/29/2021 11:52:21,09/29/2021 11:52:22,00:00:00.8162250,First B,yes,Second 1,09/29/2021 11:52:24,09/29/2021 11:52:25,00:00:00.9670500,Second 1 A,30.0%,no,09/29/2021 11:52:28
172,yes,09/29/2021 11:52:28,00:00:00.2336590,09/29/2021 11:52:28,09/29/2021 11:52:29,00:00:00.7162130,First B,yes,Second 1,09/29/2021 11:52:30,09/29/2021 11:52:31,00:00:00.7839460,Second 1 B,30.0%,no,09/29/2021 11:52:34
173,yes,09/29/2021 11:52:34,00:00:00.3989090,09/29/2021 11:52:34,09/29/2021 11:52:35,00:00:00.6325760,First A,yes,Second 2,09/29/2021 11:52:36,09/29/2021 11:52:37,00:00:00.6817810,Second 2 A,30.0%,no,09/29/2021 11:52:40
174,yes,09/29/2021 11:52:40,00:00:00.8808550,09/29/2021 11:52:41,09/29/2021 11:52:42,00:00:00.8157500,First B,yes,Second 1,09/29/2021 11:52:43,09/29/2021 11:52:44,00:00:00.9493110,Second 1 A,30.0%,no,09/29/2021 11:52:47
175,yes,09/29/2021 11:52:47,00:00:00.1337740,09/29/2021 11:52:48,09/29/2021 11:52:48,00:00:00.8317330,First A,yes,Second 2,09/29/2021 11:52:50,09/29/2021 11:52:51,00:00:01.2664490,Second 2 A,30.0%,yes,09/29/2021 11:52:54
176,yes,09/29/2021 11:52:54,00:00:00.1340480,09/29/2021 11:52:54,09/29/2021 11:52:55,00:00:00.9983350,First A,yes,Second 2,09/29/2021 11:52:57,09/29/2021 11:52:58,00:00:00.7673120,Second 2 A,30.0%,no,09/29/2021 11:53:01
177,yes,09/29/2021 11:53:01,00:00:00.0837410,09/29/2021 11:53:01,09/29/2021 11:53:01,00:00:00.6988640,First A,yes,Second 2,09/29/2021 11:53:03,09/29/2021 11:53:04,00:00:00.6842820,Second 2 A,30.0%,yes,09/29/2021 11:53:07
178,yes,09/29/2021 11:53:07,00:00:01.9002460,09/29/2021 11:53:09,09/29/2021 11:53:09,00:00:00.7660610,First A,no,Second 1,09/29/2021 11:53:11,09/29/2021 11:53:12,00:00:00.8834240,Second 1 A,30.0%,no,09/29/2021 11:53:15
179,yes,09/29/2021 11:53:15,00:00:01.7150570,09/29/2021 11:53:16,09/29/2021 11:53:17,00:00:00.7995880,First B,yes,Second 1,09/29/2021 11:53:19,09/29/2021 11:53:20,00:00:00.8830900,Second 1 A,30.0%,no,09/29/2021 11:53:23
180,yes,09/29/2021 11:53:23,00:00:01.9838730,09/29/2021 11:53:25,09/29/2021 11:53:25,00:00:00.7330950,First A,yes,Second 2,09/29/2021 11:53:27,09/29/2021 11:53:28,00:00:01.1175880,Second 2 B,70.0%,yes,09/29/2021 11:53:31
181,yes,09/29/2021 11:53:31,00:00:02.7997870,09/29/2021 11:53:34,09/29/2021 11:53:35,00:00:00.8994920,First B,yes,Second 1,09/29/2021 11:53:36,09/29/2021 11:53:37,00:00:00.8175030,Second 1 A,30.0%,no,09/29/2021 11:53:40
182,yes,09/29/2021 11:53:40,00:00:00.4650080,09/29/2021 11:53:41,09/29/2021 11:53:41,00:00:00.8328530,First A,yes,Second 2,09/29/2021 11:53:43,09/29/2021 11:53:44,00:00:01.4504330,Second 2 B,70.0%,yes,09/29/2021 11:53:47
183,yes,09/29/2021 11:53:47,00:00:04.9804260,09/29/2021 11:53:52,09/29/2021 11:53:53,00:00:00.9165500,First B,no,Second 2,09/29/2021 11:53:55,09/29/2021 11:53:56,00:00:01.0504100,Second 2 A,30.0%,no,09/29/2021 11:53:59
184,yes,09/29/2021 11:53:59,00:00:00.6509500,09/29/2021 11:54:00,09/29/2021 11:54:00,00:00:00.8656330,First A,no,Second 1,09/29/2021 11:54:02,09/29/2021 11:54:03,00:00:00.8513700,Second 1 B,30.0%,no,09/29/2021 11:54:06
185,yes,09/29/2021 11:54:06,00:00:00.5000790,09/29/2021 11:54:06,09/29/2021 11:54:07,00:00:00.6828460,First A,yes,Second 2,09/29/2021 11:54:09,09/29/2021 11:54:10,00:00:01.1660250,Second 2 B,70.0%,yes,09/29/2021 11:54:13
186,yes,09/29/2021 11:54:13,00:00:01.5157000,09/29/2021 11:54:14,09/29/2021 11:54:15,00:00:00.8663630,First A,yes,Second 2,09/29/2021 11:54:17,09/29/2021 11:54:17,00:00:00.8334660,Second 2 B,70.0%,yes,09/29/2021 11:54:21
187,yes,09/29/2021 11:54:21,00:00:03.2661440,09/29/2021 11:54:24,09/29/2021 11:54:24,00:00:00.7156660,First A,no,Second 1,09/29/2021 11:54:26,09/29/2021 11:54:27,00:00:01.1328370,Second 1 A,30.0%,no,09/29/2021 11:54:30
188,yes,09/29/2021 11:54:30,00:00:00.6659480,09/29/2021 11:54:31,09/29/2021 11:54:32,00:00:00.7003400,First A,yes,Second 2,09/29/2021 11:54:33,09/29/2021 11:54:34,00:00:01.0818450,Second 2 B,70.0%,yes,09/29/2021 11:54:37
189,yes,09/29/2021 11:54:37,00:00:00.7172640,09/29/2021 11:54:38,09/29/2021 11:54:39,00:00:00.7327520,First A,yes,Second 2,09/29/2021 11:54:40,09/29/2021 11:54:41,00:00:00.9012180,Second 2 B,70.0%,yes,09/29/2021 11:54:44
190,yes,09/29/2021 11:54:44,00:00:03.5317020,09/29/2021 11:54:48,09/29/2021 11:54:49,00:00:01.0975520,First B,yes,Second 1,09/29/2021 11:54:50,09/29/2021 11:54:51,00:00:00.7148200,Second 1 B,30.0%,no,09/29/2021 11:54:54
191,yes,09/29/2021 11:54:54,00:00:02.7344130,09/29/2021 11:54:57,09/29/2021 11:54:57,00:00:00.7982370,First A,no,Second 1,09/29/2021 11:54:59,09/29/2021 11:55:00,00:00:01.1325570,Second 1 A,30.0%,no,09/29/2021 11:55:03
192,yes,09/29/2021 11:55:03,00:00:00.1849190,09/29/2021 11:55:03,09/29/2021 11:55:04,00:00:00.7497610,First A,yes,Second 2,09/29/2021 11:55:06,09/29/2021 11:55:06,00:00:00.7186770,Second 2 B,70.0%,no,09/29/2021 11:55:09
193,yes,09/29/2021 11:55:09,00:00:01.3669900,09/29/2021 11:55:11,09/29/2021 11:55:12,00:00:00.8007350,First A,no,Second 1,09/29/2021 11:55:13,09/29/2021 11:55:14,00:00:01.2165300,Second 1 B,30.0%,no,09/29/2021 11:55:17
194,yes,09/29/2021 11:55:17,00:00:04.9975180,09/29/2021 11:55:22,09/29/2021 11:55:23,00:00:00.7344250,First B,yes,Second 1,09/29/2021 11:55:25,09/29/2021 11:55:25,00:00:00.8161480,Second 1 A,30.0%,no,09/29/2021 11:55:28
195,yes,09/29/2021 11:55:28,00:00:00.9516590,09/29/2021 11:55:29,09/29/2021 11:55:30,00:00:00.6643190,First B,yes,Second 1,09/29/2021 11:55:32,09/29/2021 11:55:32,00:00:00.8163620,Second 1 A,30.0%,yes,09/29/2021 11:55:35
196,yes,09/29/2021 11:55:35,00:00:00.4332090,09/29/2021 11:55:36,09/29/2021 11:55:37,00:00:00.9325990,First B,yes,Second 1,09/29/2021 11:55:38,09/29/2021 11:55:39,00:00:00.7989690,Second 1 A,30.0%,no,09/29/2021 11:55:42
197,yes,09/29/2021 11:55:42,00:00:00.3337900,09/29/2021 11:55:42,09/29/2021 11:55:43,00:00:00.6646510,First B,no,Second 2,09/29/2021 11:55:45,09/29/2021 11:55:45,00:00:00.8989530,Second 2 B,70.0%,no,09/29/2021 11:55:49
198,yes,09/29/2021 11:55:49,00:00:01.5004900,09/29/2021 11:55:50,09/29/2021 11:55:51,00:00:00.6663940,First B,yes,Second 1,09/29/2021 11:55:52,09/29/2021 11:55:53,00:00:01.1491970,Second 1 B,30.0%,no,09/29/2021 11:55:56
199,yes,09/29/2021 11:55:56,00:00:02.3820810,09/29/2021 11:55:59,09/29/2021 11:56:00,00:00:00.7757500,First A,yes,Second 2,09/29/2021 11:56:01,09/29/2021 11:56:02,00:00:00.8656820,Second 2 A,30.0%,no,09/29/2021 11:56:05
200,yes,09/29/2021 11:56:05,00:00:00.6651670,09/29/2021 11:56:06,09/29/2021 11:56:06,00:00:00.5681380,First A,no,Second 1,09/29/2021 11:56:08,09/29/2021 11:56:08,00:00:00.6855090,Second 1 B,30.0%,yes,09/29/2021 11:56:11
201,yes,09/29/2021 11:56:11,00:00:00.5813430,09/29/2021 11:56:12,09/29/2021 11:56:14,00:00:01.5830070,First A,yes,Second 2,09/29/2021 11:56:15,09/29/2021 11:56:16,00:00:00.8344590,Second 2 B,70.0%,yes,09/29/2021 11:56:19
202,yes,09/29/2021 11:56:19,00:00:00.6501330,09/29/2021 11:56:20,09/29/2021 11:56:20,00:00:00.7492940,First B,no,Second 2,09/29/2021 11:56:22,09/29/2021 11:56:23,00:00:00.7497490,Second 2 A,30.0%,no,09/29/2021 11:56:26
