TrialNumber,Completed,Timestamp Before Black Screen,Black Screen Duration,Timestamp First Choice Shown,Timestamp First Decision,First Choice Reaction Time,First Choice,Common Transition,Second Stage,Timestamp Second Choice Shown,Timestamp Second Decision,Second Decision Reaction Time,Second Choice,Reward Probability,Reward,Timestamp End
1,yes,09/30/2021 11:41:12,00:00:03.9122880,09/30/2021 11:41:16,09/30/2021 11:41:17,00:00:00.7707150,First B,no,Second 2,09/30/2021 11:41:19,09/30/2021 11:41:20,00:00:00.9256380,Second 2 A,70.0%,no,09/30/2021 11:41:23
2,yes,09/30/2021 11:41:23,00:00:01.4125260,09/30/2021 11:41:24,09/30/2021 11:41:25,00:00:01.0339450,First B,no,Second 2,09/30/2021 11:41:26,09/30/2021 11:41:28,00:00:01.1972420,Second 2 B,30.0%,no,09/30/2021 11:41:31
3,yes,09/30/2021 11:41:31,00:00:01.3710000,09/30/2021 11:41:32,09/30/2021 11:41:33,00:00:01.0485430,First A,yes,Second 2,09/30/2021 11:41:35,09/30/2021 11:41:36,00:00:01.1338680,Second 2 A,70.0%,no,09/30/2021 11:41:39
4,yes,09/30/2021 11:41:39,00:00:02.2866060,09/30/2021 11:41:41,09/30/2021 11:41:42,00:00:00.5819720,First A,yes,Second 2,09/30/2021 11:41:43,09/30/2021 11:41:44,00:00:00.7156290,Second 2 B,30.0%,no,09/30/2021 11:41:47
5,yes,09/30/2021 11:41:47,00:00:02.7069830,09/30/2021 11:41:50,09/30/2021 11:41:50,00:00:00.7941710,First A,yes,Second 2,09/30/2021 11:41:52,09/30/2021 11:41:53,00:00:00.7377560,Second 2 B,30.0%,no,09/30/2021 11:41:56
6,yes,09/30/2021 11:41:56,00:00:00.2298970,09/30/2021 11:41:56,09/30/2021 11:41:57,00:00:01.1854490,First B,yes,Second 1,09/30/2021 11:41:59,09/30/2021 11:42:00,00:00:01.1637320,Second 1 B,30.0%,no,09/30/2021 11:42:03
7,yes,09/30/2021 11:42:03,00:00:00.1814260,09/30/2021 11:42:03,09/30/2021 11:42:04,00:00:00.7524020,First B,yes,Second 1,09/30/2021 11:42:05,09/30/2021 11:42:06,00:00:00.9274700,Second 1 A,30.0%,yes,09/30/2021 11:42:09
8,yes,09/30/2021 11:42:09,00:00:02.8729090,09/30/2021 11:42:12,09/30/2021 11:42:13,00:00:01.0835290,First B,yes,Second 1,09/30/2021 11:42:15,09/30/2021 11:42:15,00:00:00.6320750,Second 1 A,30.0%,no,09/30/2021 11:42:18
9,yes,09/30/2021 11:42:18,00:00:03.2581650,09/30/2021 11:42:21,09/30/2021 11:42:22,00:00:00.7486290,First B,yes,Second 1,09/30/2021 11:42:24,09/30/2021 11:42:24,00:00:00.5152180,Second 1 A,30.0%,no,09/30/2021 11:42:27
10,yes,09/30/2021 11:42:27,00:00:00.9411650,09/30/2021 11:42:28,09/30/2021 11:42:29,00:00:00.9132840,First B,yes,Second 1,09/30/2021 11:42:31,09/30/2021 11:42:31,00:00:00.4830650,Second 1 B,30.0%,no,09/30/2021 11:42:34
11,yes,09/30/2021 11:42:34,00:00:01.5395160,09/30/2021 11:42:36,09/30/2021 11:42:37,00:00:01.6310450,First A,yes,Second 2,09/30/2021 11:42:39,09/30/2021 11:42:39,00:00:00.6472290,Second 2 B,30.0%,no,09/30/2021 11:42:42
12,yes,09/30/2021 11:42:42,00:00:01.7719540,09/30/2021 11:42:44,09/30/2021 11:42:45,00:00:00.8292940,First B,yes,Second 1,09/30/2021 11:42:47,09/30/2021 11:42:48,00:00:01.6177320,Second 1 A,30.0%,no,09/30/2021 11:42:51
13,yes,09/30/2021 11:42:51,00:00:05.1458510,09/30/2021 11:42:56,09/30/2021 11:42:57,00:00:00.6689500,First B,no,Second 2,09/30/2021 11:42:58,09/30/2021 11:43:00,00:00:01.0676810,Second 2 A,70.0%,yes,09/30/2021 11:43:03
14,yes,09/30/2021 11:43:03,00:00:02.0536400,09/30/2021 11:43:05,09/30/2021 11:43:05,00:00:00.7376550,First B,no,Second 2,09/30/2021 11:43:07,09/30/2021 11:43:09,00:00:01.8156550,Second 2 A,70.0%,yes,09/30/2021 11:43:12
15,yes,09/30/2021 11:43:12,00:00:00.1489670,09/30/2021 11:43:12,09/30/2021 11:43:13,00:00:00.8977340,First A,yes,Second 2,09/30/2021 11:43:14,09/30/2021 11:43:15,00:00:00.6336190,Second 2 A,70.0%,yes,09/30/2021 11:43:18
16,yes,09/30/2021 11:43:18,00:00:04.6615620,09/30/2021 11:43:23,09/30/2021 11:43:23,00:00:00.6822290,First A,no,Second 1,09/30/2021 11:43:25,09/30/2021 11:43:26,00:00:01.4183640,Second 1 A,30.0%,no,09/30/2021 11:43:29
17,yes,09/30/2021 11:43:29,00:00:08.4828610,09/30/2021 11:43:38,09/30/2021 11:43:38,00:00:00.6725720,First A,yes,Second 2,09/30/2021 11:43:40,09/30/2021 11:43:41,00:00:01.1167050,Second 2 A,70.0%,no,09/30/2021 11:43:44
18,yes,09/30/2021 11:43:44,00:00:06.4296000,09/30/2021 11:43:50,09/30/2021 11:43:51,00:00:00.8675700,First A,yes,Second 2,09/30/2021 11:43:53,09/30/2021 11:43:53,00:00:00.6346360,Second 2 A,70.0%,no,09/30/2021 11:43:56
19,yes,09/30/2021 11:43:56,00:00:02.0164510,09/30/2021 11:43:58,09/30/2021 11:43:59,00:00:00.7517900,First A,yes,Second 2,09/30/2021 11:44:01,09/30/2021 11:44:02,00:00:00.8830970,Second 2 B,30.0%,yes,09/30/2021 11:44:05
20,yes,09/30/2021 11:44:05,00:00:01.1537050,09/30/2021 11:44:06,09/30/2021 11:44:07,00:00:01.1322650,First A,no,Second 1,09/30/2021 11:44:08,09/30/2021 11:44:09,00:00:00.9361600,Second 1 A,30.0%,no,09/30/2021 11:44:12
21,yes,09/30/2021 11:44:12,00:00:00.7167510,09/30/2021 11:44:13,09/30/2021 11:44:14,00:00:01.2223140,First B,no,Second 2,09/30/2021 11:44:16,09/30/2021 11:44:18,00:00:01.8990980,Second 2 B,30.0%,yes,09/30/2021 11:44:21
22,yes,09/30/2021 11:44:21,00:00:00.2134380,09/30/2021 11:44:21,09/30/2021 11:44:22,00:00:01.5853140,First B,yes,Second 1,09/30/2021 11:44:24,09/30/2021 11:44:25,00:00:00.8425850,Second 1 B,30.0%,no,09/30/2021 11:44:28
23,yes,09/30/2021 11:44:28,00:00:00.9560270,09/30/2021 11:44:29,09/30/2021 11:44:29,00:00:00.7316260,First B,yes,Second 1,09/30/2021 11:44:31,09/30/2021 11:44:31,00:00:00.5329210,Second 1 B,30.0%,no,09/30/2021 11:44:34
24,yes,09/30/2021 11:44:34,00:00:04.4109850,09/30/2021 11:44:39,09/30/2021 11:44:40,00:00:00.9641110,First B,yes,Second 1,09/30/2021 11:44:41,09/30/2021 11:44:43,00:00:01.5658870,Second 1 A,30.0%,no,09/30/2021 11:44:46
25,yes,09/30/2021 11:44:46,00:00:02.2200840,09/30/2021 11:44:48,09/30/2021 11:44:49,00:00:00.7987570,First A,yes,Second 2,09/30/2021 11:44:50,09/30/2021 11:44:52,00:00:01.8512620,Second 2 A,70.0%,no,09/30/2021 11:44:55
26,yes,09/30/2021 11:44:55,00:00:01.0710290,09/30/2021 11:44:56,09/30/2021 11:44:57,00:00:00.6292620,First B,yes,Second 1,09/30/2021 11:44:59,09/30/2021 11:45:00,00:00:01.5636710,Second 1 B,30.0%,no,09/30/2021 11:45:03
27,yes,09/30/2021 11:45:03,00:00:00.0993590,09/30/2021 11:45:03,09/30/2021 11:45:04,00:00:00.5980730,First A,yes,Second 2,09/30/2021 11:45:05,09/30/2021 11:45:07,00:00:01.8001750,Second 2 A,70.0%,yes,09/30/2021 11:45:10
28,yes,09/30/2021 11:45:10,00:00:01.8022320,09/30/2021 11:45:12,09/30/2021 11:45:13,00:00:01.2297720,First A,no,Second 1,09/30/2021 11:45:15,09/30/2021 11:45:16,00:00:00.8474200,Second 1 A,30.0%,yes,09/30/2021 11:45:19
29,yes,09/30/2021 11:45:19,00:00:03.2542650,09/30/2021 11:45:22,09/30/2021 11:45:22,00:00:00.6842730,First A,yes,Second 2,09/30/2021 11:45:24,09/30/2021 11:45:25,00:00:00.7629110,Second 2 A,70.0%,no,09/30/2021 11:45:28
30,yes,09/30/2021 11:45:28,00:00:00.6994670,09/30/2021 11:45:28,09/30/2021 11:45:29,00:00:00.6315010,First A,no,Second 1,09/30/2021 11:45:31,09/30/2021 11:45:32,00:00:01.0805140,Second 1 A,30.0%,yes,09/30/2021 11:45:35
31,yes,09/30/2021 11:45:35,00:00:00.9848620,09/30/2021 11:45:36,09/30/2021 11:45:37,00:00:00.9624530,First A,yes,Second 2,09/30/2021 11:45:38,09/30/2021 11:45:39,00:00:00.6311900,Second 2 A,70.0%,yes,09/30/2021 11:45:42
32,yes,09/30/2021 11:45:42,00:00:01.5043560,09/30/2021 11:45:43,09/30/2021 11:45:45,00:00:01.2657490,First A,no,Second 1,09/30/2021 11:45:46,09/30/2021 11:45:47,00:00:01.2493960,Second 1 A,30.0%,no,09/30/2021 11:45:50
33,yes,09/30/2021 11:45:50,00:00:05.2615140,09/30/2021 11:45:56,09/30/2021 11:45:56,00:00:00.6312880,First A,yes,Second 2,09/30/2021 11:45:58,09/30/2021 11:45:58,00:00:00.6010660,Second 2 A,70.0%,yes,09/30/2021 11:46:01
34,yes,09/30/2021 11:46:01,00:00:01.4014110,09/30/2021 11:46:03,09/30/2021 11:46:04,00:00:01.1026370,First A,yes,Second 2,09/30/2021 11:46:05,09/30/2021 11:46:06,00:00:00.5977430,Second 2 A,70.0%,yes,09/30/2021 11:46:09
35,yes,09/30/2021 11:46:09,00:00:00.7361830,09/30/2021 11:46:10,09/30/2021 11:46:11,00:00:01.2838030,First A,yes,Second 2,09/30/2021 11:46:12,09/30/2021 11:46:13,00:00:00.5138980,Second 2 A,70.0%,yes,09/30/2021 11:46:16
36,yes,09/30/2021 11:46:16,00:00:00.6374160,09/30/2021 11:46:17,09/30/2021 11:46:17,00:00:00.6642850,First A,no,Second 1,09/30/2021 11:46:19,09/30/2021 11:46:20,00:00:00.9017220,Second 1 A,30.0%,yes,09/30/2021 11:46:23
37,yes,09/30/2021 11:46:23,00:00:00.2708360,09/30/2021 11:46:23,09/30/2021 11:46:24,00:00:00.7152620,First A,yes,Second 2,09/30/2021 11:46:25,09/30/2021 11:46:26,00:00:00.5794230,Second 2 A,70.0%,yes,09/30/2021 11:46:29
38,yes,09/30/2021 11:46:29,00:00:00.1215140,09/30/2021 11:46:29,09/30/2021 11:46:30,00:00:00.8454370,First A,yes,Second 2,09/30/2021 11:46:31,09/30/2021 11:46:32,00:00:00.7327350,Second 2 A,70.0%,no,09/30/2021 11:46:35
39,yes,09/30/2021 11:46:35,00:00:00.9014880,09/30/2021 11:46:36,09/30/2021 11:46:37,00:00:00.7841510,First A,yes,Second 2,09/30/2021 11:46:38,09/30/2021 11:46:39,00:00:00.7001430,Second 2 A,70.0%,yes,09/30/2021 11:46:42
40,yes,09/30/2021 11:46:42,00:00:00.8683570,09/30/2021 11:46:43,09/30/2021 11:46:44,00:00:01.1332030,First A,no,Second 1,09/30/2021 11:46:45,09/30/2021 11:46:46,00:00:01.0012810,Second 1 A,30.0%,no,09/30/2021 11:46:49
41,yes,09/30/2021 11:46:49,00:00:00.9952840,09/30/2021 11:46:50,09/30/2021 11:46:51,00:00:00.7064790,First A,yes,Second 2,09/30/2021 11:46:53,09/30/2021 11:46:53,00:00:00.5817260,Second 2 A,70.0%,yes,09/30/2021 11:46:56
42,yes,09/30/2021 11:46:56,00:00:01.7023600,09/30/2021 11:46:58,09/30/2021 11:46:59,00:00:00.9668900,First A,yes,Second 2,09/30/2021 11:47:00,09/30/2021 11:47:02,00:00:01.5275850,Second 2 A,70.0%,yes,09/30/2021 11:47:05
43,yes,09/30/2021 11:47:05,00:00:02.0069320,09/30/2021 11:47:07,09/30/2021 11:47:08,00:00:01.0790850,First A,yes,Second 2,09/30/2021 11:47:10,09/30/2021 11:47:10,00:00:00.6495090,Second 2 A,70.0%,no,09/30/2021 11:47:13
44,yes,09/30/2021 11:47:13,00:00:05.2975210,09/30/2021 11:47:19,09/30/2021 11:47:19,00:00:00.6800030,First A,yes,Second 2,09/30/2021 11:47:21,09/30/2021 11:47:21,00:00:00.6662290,Second 2 A,70.0%,yes,09/30/2021 11:47:24
45,yes,09/30/2021 11:47:24,00:00:01.2867860,09/30/2021 11:47:26,09/30/2021 11:47:27,00:00:00.8999930,First A,no,Second 1,09/30/2021 11:47:28,09/30/2021 11:47:29,00:00:00.9327840,Second 1 A,30.0%,yes,09/30/2021 11:47:32
46,yes,09/30/2021 11:47:32,00:00:02.9904520,09/30/2021 11:47:35,09/30/2021 11:47:36,00:00:01.3969470,First A,no,Second 1,09/30/2021 11:47:38,09/30/2021 11:47:39,00:00:01.2458660,Second 1 A,30.0%,no,09/30/2021 11:47:42
47,yes,09/30/2021 11:47:42,00:00:05.2098560,09/30/2021 11:47:47,09/30/2021 11:47:48,00:00:00.8528890,First A,yes,Second 2,09/30/2021 11:47:50,09/30/2021 11:47:50,00:00:00.7841250,Second 2 A,70.0%,yes,09/30/2021 11:47:54
48,yes,09/30/2021 11:47:54,00:00:01.7999090,09/30/2021 11:47:55,09/30/2021 11:47:56,00:00:00.9328740,First A,yes,Second 2,09/30/2021 11:47:58,09/30/2021 11:47:58,00:00:00.7119090,Second 2 A,70.0%,yes,09/30/2021 11:48:01
49,yes,09/30/2021 11:48:01,00:00:01.3663860,09/30/2021 11:48:03,09/30/2021 11:48:05,00:00:01.9703820,First A,no,Second 1,09/30/2021 11:48:07,09/30/2021 11:48:09,00:00:02.8789520,Second 1 A,30.0%,no,09/30/2021 11:48:28
50,yes,09/30/2021 11:48:28,00:00:03.9357190,09/30/2021 11:48:32,09/30/2021 11:48:33,00:00:00.7350950,First A,yes,Second 2,09/30/2021 11:48:34,09/30/2021 11:48:35,00:00:00.9487600,Second 2 A,70.0%,no,09/30/2021 11:48:38
51,yes,09/30/2021 11:48:38,00:00:00.1035230,09/30/2021 11:48:38,09/30/2021 11:48:39,00:00:00.6497600,First A,yes,Second 2,09/30/2021 11:48:41,09/30/2021 11:48:41,00:00:00.7008400,Second 2 A,70.0%,yes,09/30/2021 11:48:44
52,yes,09/30/2021 11:48:44,00:00:00.7506670,09/30/2021 11:48:45,09/30/2021 11:48:46,00:00:00.7963880,First A,yes,Second 2,09/30/2021 11:48:47,09/30/2021 11:48:48,00:00:00.7136670,Second 2 A,70.0%,yes,09/30/2021 11:48:51
53,yes,09/30/2021 11:48:51,00:00:03.2759210,09/30/2021 11:48:54,09/30/2021 11:48:55,00:00:01.0488410,First A,yes,Second 2,09/30/2021 11:48:57,09/30/2021 11:48:58,00:00:00.6651180,Second 2 A,70.0%,yes,09/30/2021 11:49:01
54,yes,09/30/2021 11:49:01,00:00:00.8197350,09/30/2021 11:49:01,09/30/2021 11:49:02,00:00:00.7356220,First B,yes,Second 1,09/30/2021 11:49:04,09/30/2021 11:49:04,00:00:00.6975060,Second 1 A,30.0%,no,09/30/2021 11:49:07
55,yes,09/30/2021 11:49:07,00:00:03.0072100,09/30/2021 11:49:10,09/30/2021 11:49:11,00:00:00.9319970,First A,yes,Second 2,09/30/2021 11:49:13,09/30/2021 11:49:14,00:00:00.8391480,Second 2 A,70.0%,yes,09/30/2021 11:49:17
56,yes,09/30/2021 11:49:17,00:00:02.0862920,09/30/2021 11:49:19,09/30/2021 11:49:19,00:00:00.7674720,First A,yes,Second 2,09/30/2021 11:49:21,09/30/2021 11:49:22,00:00:00.7636630,Second 2 A,70.0%,yes,09/30/2021 11:49:25
57,yes,09/30/2021 11:49:25,00:00:01.6840690,09/30/2021 11:49:26,09/30/2021 11:49:27,00:00:00.8312200,First A,yes,Second 2,09/30/2021 11:49:29,09/30/2021 11:49:29,00:00:00.5997390,Second 2 A,70.0%,no,09/30/2021 11:49:32
58,yes,09/30/2021 11:49:32,00:00:00.2705640,09/30/2021 11:49:33,09/30/2021 11:49:33,00:00:00.6000650,First A,no,Second 1,09/30/2021 11:49:35,09/30/2021 11:49:36,00:00:00.8516790,Second 1 A,30.0%,yes,09/30/2021 11:49:39
59,yes,09/30/2021 11:49:39,00:00:02.5566820,09/30/2021 11:49:41,09/30/2021 11:49:42,00:00:00.7814480,First A,yes,Second 2,09/30/2021 11:49:43,09/30/2021 11:49:44,00:00:00.7166980,Second 2 A,70.0%,no,09/30/2021 11:49:47
60,yes,09/30/2021 11:49:47,00:00:02.2233370,09/30/2021 11:49:49,09/30/2021 11:49:50,00:00:00.6490200,First A,no,Second 1,09/30/2021 11:49:52,09/30/2021 11:49:52,00:00:00.8656810,Second 1 A,30.0%,yes,09/30/2021 11:49:55
61,yes,09/30/2021 11:49:55,00:00:02.8560430,09/30/2021 11:49:58,09/30/2021 11:49:59,00:00:00.6394490,First A,yes,Second 2,09/30/2021 11:50:00,09/30/2021 11:50:01,00:00:00.6156400,Second 2 A,70.0%,yes,09/30/2021 11:50:04
62,yes,09/30/2021 11:50:04,00:00:01.0888770,09/30/2021 11:50:05,09/30/2021 11:50:06,00:00:00.7278450,First A,yes,Second 2,09/30/2021 11:50:07,09/30/2021 11:50:08,00:00:00.7846690,Second 2 A,70.0%,no,09/30/2021 11:50:11
63,yes,09/30/2021 11:50:11,00:00:07.6353280,09/30/2021 11:50:19,09/30/2021 11:50:19,00:00:00.6819170,First A,no,Second 1,09/30/2021 11:50:21,09/30/2021 11:50:22,00:00:00.8308320,Second 1 A,30.0%,no,09/30/2021 11:50:25
64,yes,09/30/2021 11:50:25,00:00:00.6191270,09/30/2021 11:50:25,09/30/2021 11:50:26,00:00:00.5826070,First A,yes,Second 2,09/30/2021 11:50:28,09/30/2021 11:50:28,00:00:00.9172430,Second 2 A,70.0%,yes,09/30/2021 11:50:31
65,yes,09/30/2021 11:50:31,00:00:01.4389290,09/30/2021 11:50:33,09/30/2021 11:50:34,00:00:01.4800700,First A,no,Second 1,09/30/2021 11:50:36,09/30/2021 11:50:37,00:00:01.1824220,Second 1 A,30.0%,no,09/30/2021 11:50:40
66,yes,09/30/2021 11:50:40,00:00:00.0165430,09/30/2021 11:50:40,09/30/2021 11:50:41,00:00:00.7505830,First A,yes,Second 2,09/30/2021 11:50:42,09/30/2021 11:50:43,00:00:00.6975230,Second 2 A,70.0%,no,09/30/2021 11:50:46
67,yes,09/30/2021 11:50:46,00:00:03.0568010,09/30/2021 11:50:49,09/30/2021 11:50:50,00:00:00.6605430,First A,no,Second 1,09/30/2021 11:50:51,09/30/2021 11:50:53,00:00:01.5366370,Second 1 A,30.0%,no,09/30/2021 11:50:56
68,yes,09/30/2021 11:50:56,00:00:00.1822110,09/30/2021 11:50:56,09/30/2021 11:50:57,00:00:00.6317640,First A,yes,Second 2,09/30/2021 11:50:58,09/30/2021 11:50:59,00:00:00.5621630,Second 2 A,70.0%,no,09/30/2021 11:51:02
69,yes,09/30/2021 11:51:02,00:00:04.3293020,09/30/2021 11:51:06,09/30/2021 11:51:07,00:00:00.8144350,First A,no,Second 1,09/30/2021 11:51:08,09/30/2021 11:51:09,00:00:00.8488180,Second 1 A,30.0%,no,09/30/2021 11:51:12
70,yes,09/30/2021 11:51:12,00:00:03.6133680,09/30/2021 11:51:16,09/30/2021 11:51:17,00:00:00.8975400,First A,yes,Second 2,09/30/2021 11:51:18,09/30/2021 11:51:19,00:00:00.7515570,Second 2 A,70.0%,yes,09/30/2021 11:51:22
71,yes,09/30/2021 11:51:22,00:00:01.2995550,09/30/2021 11:51:23,09/30/2021 11:51:25,00:00:01.4326400,First A,yes,Second 2,09/30/2021 11:51:26,09/30/2021 11:51:28,00:00:01.3181690,Second 2 A,70.0%,yes,09/30/2021 11:51:31
72,yes,09/30/2021 11:51:31,00:00:03.2062830,09/30/2021 11:51:34,09/30/2021 11:51:35,00:00:01.3021850,First A,yes,Second 2,09/30/2021 11:51:37,09/30/2021 11:51:37,00:00:00.5800400,Second 2 A,70.0%,yes,09/30/2021 11:51:40
73,yes,09/30/2021 11:51:40,00:00:00.1156080,09/30/2021 11:51:40,09/30/2021 11:51:41,00:00:00.8645870,First A,no,Second 1,09/30/2021 11:51:43,09/30/2021 11:51:43,00:00:00.8355210,Second 1 A,30.0%,no,09/30/2021 11:51:46
74,yes,09/30/2021 11:51:46,00:00:01.9902690,09/30/2021 11:51:48,09/30/2021 11:51:49,00:00:00.7983090,First A,yes,Second 2,09/30/2021 11:51:51,09/30/2021 11:51:51,00:00:00.7156270,Second 2 A,70.0%,no,09/30/2021 11:51:54
75,yes,09/30/2021 11:51:54,00:00:01.6208250,09/30/2021 11:51:56,09/30/2021 11:51:57,00:00:00.5653160,First A,yes,Second 2,09/30/2021 11:51:58,09/30/2021 11:51:59,00:00:01.0490210,Second 2 A,70.0%,yes,09/30/2021 11:52:02
76,yes,09/30/2021 11:52:02,00:00:03.9171070,09/30/2021 11:52:06,09/30/2021 11:52:07,00:00:00.7122430,First A,yes,Second 2,09/30/2021 11:52:08,09/30/2021 11:52:09,00:00:00.8320790,Second 2 A,70.0%,yes,09/30/2021 11:52:12
77,yes,09/30/2021 11:52:12,00:00:02.4754610,09/30/2021 11:52:15,09/30/2021 11:52:16,00:00:00.8792030,First A,yes,Second 2,09/30/2021 11:52:17,09/30/2021 11:52:18,00:00:00.8337690,Second 2 A,70.0%,yes,09/30/2021 11:52:21
78,yes,09/30/2021 11:52:21,00:00:00.3333000,09/30/2021 11:52:21,09/30/2021 11:52:23,00:00:01.4819200,First A,no,Second 1,09/30/2021 11:52:24,09/30/2021 11:52:26,00:00:02.0040910,Second 1 A,30.0%,no,09/30/2021 11:52:29
79,yes,09/30/2021 11:52:29,00:00:04.2438390,09/30/2021 11:52:34,09/30/2021 11:52:35,00:00:01.1809690,First A,yes,Second 2,09/30/2021 11:52:36,09/30/2021 11:52:37,00:00:00.7333000,Second 2 A,70.0%,yes,09/30/2021 11:52:40
80,yes,09/30/2021 11:52:40,00:00:00.4384080,09/30/2021 11:52:40,09/30/2021 11:52:41,00:00:00.8961600,First A,yes,Second 2,09/30/2021 11:52:43,09/30/2021 11:52:43,00:00:00.6815060,Second 2 A,70.0%,yes,09/30/2021 11:52:46
81,yes,09/30/2021 11:52:46,00:00:00.9173600,09/30/2021 11:52:47,09/30/2021 11:52:48,00:00:01.0504820,First A,yes,Second 2,09/30/2021 11:52:50,09/30/2021 11:52:51,00:00:00.8169760,Second 2 A,70.0%,yes,09/30/2021 11:52:54
82,yes,09/30/2021 11:52:54,00:00:01.6219670,09/30/2021 11:52:55,09/30/2021 11:52:57,00:00:01.1835570,First A,yes,Second 2,09/30/2021 11:52:58,09/30/2021 11:52:59,00:00:00.6823740,Second 2 A,70.0%,yes,09/30/2021 11:53:02
83,yes,09/30/2021 11:53:02,00:00:00.0335640,09/30/2021 11:53:02,09/30/2021 11:53:04,00:00:01.7662850,First A,no,Second 1,09/30/2021 11:53:05,09/30/2021 11:53:06,00:00:00.9282830,Second 1 A,30.0%,no,09/30/2021 11:53:09
84,yes,09/30/2021 11:53:09,00:00:00.1681120,09/30/2021 11:53:09,09/30/2021 11:53:10,00:00:00.7675820,First A,yes,Second 2,09/30/2021 11:53:11,09/30/2021 11:53:12,00:00:00.7012120,Second 2 A,70.0%,yes,09/30/2021 11:53:15
85,yes,09/30/2021 11:53:15,00:00:00.0169320,09/30/2021 11:53:15,09/30/2021 11:53:16,00:00:00.9307980,First A,no,Second 1,09/30/2021 11:53:18,09/30/2021 11:53:18,00:00:00.7389410,Second 1 A,30.0%,no,09/30/2021 11:53:21
86,yes,09/30/2021 11:53:21,00:00:02.6566560,09/30/2021 11:53:24,09/30/2021 11:53:25,00:00:00.6980700,First A,no,Second 1,09/30/2021 11:53:26,09/30/2021 11:53:27,00:00:00.7808430,Second 1 A,30.0%,no,09/30/2021 11:53:30
87,yes,09/30/2021 11:53:30,00:00:00.8841610,09/30/2021 11:53:31,09/30/2021 11:53:32,00:00:00.7136670,First A,no,Second 1,09/30/2021 11:53:33,09/30/2021 11:53:34,00:00:00.8485810,Second 1 A,30.0%,yes,09/30/2021 11:53:37
88,yes,09/30/2021 11:53:37,00:00:03.5889450,09/30/2021 11:53:41,09/30/2021 11:53:41,00:00:00.6997690,First A,yes,Second 2,09/30/2021 11:53:43,09/30/2021 11:53:44,00:00:00.7319820,Second 2 A,70.0%,yes,09/30/2021 11:53:47
89,yes,09/30/2021 11:53:47,00:00:02.6060130,09/30/2021 11:53:49,09/30/2021 11:53:50,00:00:00.8462360,First A,yes,Second 2,09/30/2021 11:53:51,09/30/2021 11:53:52,00:00:00.5626920,Second 2 A,70.0%,no,09/30/2021 11:53:55
90,yes,09/30/2021 11:53:55,00:00:00.1842980,09/30/2021 11:53:55,09/30/2021 11:53:56,00:00:00.7955170,First A,yes,Second 2,09/30/2021 11:53:58,09/30/2021 11:53:58,00:00:00.7128170,Second 2 A,70.0%,yes,09/30/2021 11:54:01
91,yes,09/30/2021 11:54:01,00:00:01.3521760,09/30/2021 11:54:03,09/30/2021 11:54:03,00:00:00.7654370,First A,yes,Second 2,09/30/2021 11:54:05,09/30/2021 11:54:06,00:00:00.6994790,Second 2 A,70.0%,yes,09/30/2021 11:54:09
92,yes,09/30/2021 11:54:09,00:00:02.4117580,09/30/2021 11:54:11,09/30/2021 11:54:12,00:00:00.6712310,First A,no,Second 1,09/30/2021 11:54:13,09/30/2021 11:54:14,00:00:00.8983830,Second 1 A,30.0%,no,09/30/2021 11:54:17
93,yes,09/30/2021 11:54:17,00:00:05.4943000,09/30/2021 11:54:23,09/30/2021 11:54:23,00:00:00.6883040,First A,yes,Second 2,09/30/2021 11:54:25,09/30/2021 11:54:25,00:00:00.6837820,Second 2 A,70.0%,no,09/30/2021 11:54:28
94,yes,09/30/2021 11:54:28,00:00:00.0343550,09/30/2021 11:54:29,09/30/2021 11:54:29,00:00:00.7834380,First A,no,Second 1,09/30/2021 11:54:31,09/30/2021 11:54:32,00:00:00.9183620,Second 1 A,30.0%,no,09/30/2021 11:54:35
95,yes,09/30/2021 11:54:35,00:00:00.1539360,09/30/2021 11:54:35,09/30/2021 11:54:36,00:00:00.9952330,First A,yes,Second 2,09/30/2021 11:54:37,09/30/2021 11:54:38,00:00:00.6278210,Second 2 A,70.0%,no,09/30/2021 11:54:41
96,yes,09/30/2021 11:54:41,00:00:02.4492860,09/30/2021 11:54:43,09/30/2021 11:54:44,00:00:00.7367670,First A,yes,Second 2,09/30/2021 11:54:46,09/30/2021 11:54:47,00:00:00.8987440,Second 2 A,70.0%,no,09/30/2021 11:54:50
97,yes,09/30/2021 11:54:50,00:00:01.6739790,09/30/2021 11:54:51,09/30/2021 11:54:52,00:00:00.7156210,First A,yes,Second 2,09/30/2021 11:54:54,09/30/2021 11:54:54,00:00:00.6366010,Second 2 A,70.0%,yes,09/30/2021 11:54:57
98,yes,09/30/2021 11:54:57,00:00:00.2015810,09/30/2021 11:54:57,09/30/2021 11:54:58,00:00:01.0652590,First A,yes,Second 2,09/30/2021 11:55:00,09/30/2021 11:55:01,00:00:00.6802580,Second 2 A,70.0%,no,09/30/2021 11:55:04
99,yes,09/30/2021 11:55:04,00:00:00.9554210,09/30/2021 11:55:05,09/30/2021 11:55:05,00:00:00.7822270,First A,yes,Second 2,09/30/2021 11:55:07,09/30/2021 11:55:07,00:00:00.6348510,Second 2 A,70.0%,no,09/30/2021 11:55:10
100,yes,09/30/2021 11:55:10,00:00:03.0598180,09/30/2021 11:55:14,09/30/2021 11:55:14,00:00:00.6485310,First A,yes,Second 2,09/30/2021 11:55:16,09/30/2021 11:55:16,00:00:00.6802330,Second 2 B,30.0%,yes,09/30/2021 11:55:19
101,yes,09/30/2021 11:55:19,00:00:01.0027850,09/30/2021 11:55:20,09/30/2021 11:55:21,00:00:00.9699450,First A,yes,Second 2,09/30/2021 11:55:23,09/30/2021 11:55:24,00:00:00.6483640,Second 2 B,30.0%,no,09/30/2021 11:55:27
102,yes,09/30/2021 11:55:27,00:00:02.4533620,09/30/2021 11:55:29,09/30/2021 11:55:30,00:00:00.7537190,First A,yes,Second 2,09/30/2021 11:55:31,09/30/2021 11:55:32,00:00:00.6826860,Second 2 A,70.0%,yes,09/30/2021 11:55:35
103,yes,09/30/2021 11:55:35,00:00:08.8855440,09/30/2021 11:55:44,09/30/2021 11:55:45,00:00:00.7646380,First A,no,Second 1,09/30/2021 11:55:46,09/30/2021 11:55:47,00:00:00.8989870,Second 1 A,30.0%,yes,09/30/2021 11:55:50
104,yes,09/30/2021 11:55:50,00:00:03.9410530,09/30/2021 11:55:54,09/30/2021 11:55:55,00:00:01.1508840,First A,yes,Second 2,09/30/2021 11:55:57,09/30/2021 11:55:57,00:00:00.5500060,Second 2 A,70.0%,no,09/30/2021 11:56:00
105,yes,09/30/2021 11:56:00,00:00:01.0523430,09/30/2021 11:56:01,09/30/2021 11:56:02,00:00:00.5809910,First A,yes,Second 2,09/30/2021 11:56:03,09/30/2021 11:56:04,00:00:00.6942620,Second 2 A,70.0%,yes,09/30/2021 11:56:07
106,yes,09/30/2021 11:56:07,00:00:00.9137450,09/30/2021 11:56:08,09/30/2021 11:56:09,00:00:00.8538400,First A,yes,Second 2,09/30/2021 11:56:10,09/30/2021 11:56:11,00:00:00.6952750,Second 2 A,70.0%,no,09/30/2021 11:56:14
107,yes,09/30/2021 11:56:14,00:00:01.6728920,09/30/2021 11:56:16,09/30/2021 11:56:16,00:00:00.6344320,First A,no,Second 1,09/30/2021 11:56:18,09/30/2021 11:56:19,00:00:00.8821290,Second 1 A,30.0%,yes,09/30/2021 11:56:22
108,yes,09/30/2021 11:56:22,00:00:05.2271390,09/30/2021 11:56:27,09/30/2021 11:56:28,00:00:00.9331740,First A,yes,Second 2,09/30/2021 11:56:29,09/30/2021 11:56:30,00:00:00.5971980,Second 2 A,70.0%,yes,09/30/2021 11:56:33
109,yes,09/30/2021 11:56:33,00:00:03.2969930,09/30/2021 11:56:36,09/30/2021 11:56:37,00:00:00.6291720,First A,yes,Second 2,09/30/2021 11:56:38,09/30/2021 11:56:39,00:00:00.5447780,Second 2 A,70.0%,yes,09/30/2021 11:56:42
110,yes,09/30/2021 11:56:42,00:00:01.0829300,09/30/2021 11:56:43,09/30/2021 11:56:44,00:00:00.8877220,First A,no,Second 1,09/30/2021 11:56:45,09/30/2021 11:56:46,00:00:00.6578160,Second 1 A,30.0%,no,09/30/2021 11:56:49
111,yes,09/30/2021 11:56:49,00:00:06.8013500,09/30/2021 11:56:56,09/30/2021 11:56:56,00:00:00.5617550,First A,yes,Second 2,09/30/2021 11:56:58,09/30/2021 11:56:59,00:00:01.2160420,Second 2 A,70.0%,yes,09/30/2021 11:57:02
112,yes,09/30/2021 11:57:02,00:00:00.0866370,09/30/2021 11:57:02,09/30/2021 11:57:04,00:00:01.3326960,First A,yes,Second 2,09/30/2021 11:57:05,09/30/2021 11:57:06,00:00:00.8661740,Second 2 A,70.0%,yes,09/30/2021 11:57:09
113,yes,09/30/2021 11:57:09,00:00:00.0499470,09/30/2021 11:57:09,09/30/2021 11:57:10,00:00:00.9496280,First A,no,Second 1,09/30/2021 11:57:11,09/30/2021 11:57:12,00:00:00.7510580,Second 1 A,30.0%,no,09/30/2021 11:57:15
114,no,09/30/2021 11:57:15,00:00:01.1759580,09/30/2021 11:57:16,09/30/2021 11:57:17,00:00:00.5626720,First A,yes,Second 2,09/30/2021 11:57:18,09/30/2021 11:57:19,00:00:00.6991150,Second 2 A,,,09/30/2021 11:57:20
115,no,09/30/2021 11:57:20,,,,,,,,,,,,,,01/01/0001 00:00:00
116,yes,09/30/2021 11:57:44,00:00:02.8103690,09/30/2021 11:57:47,09/30/2021 11:57:48,00:00:00.5825310,First A,no,Second 1,09/30/2021 11:57:49,09/30/2021 11:57:50,00:00:00.7642960,Second 1 A,30.0%,yes,09/30/2021 11:57:53
117,yes,09/30/2021 11:57:53,00:00:01.8505570,09/30/2021 11:57:55,09/30/2021 11:57:55,00:00:00.5976240,First A,no,Second 1,09/30/2021 11:57:57,09/30/2021 11:57:58,00:00:00.7683950,Second 1 A,30.0%,no,09/30/2021 11:58:01
118,yes,09/30/2021 11:58:01,00:00:00.5876590,09/30/2021 11:58:01,09/30/2021 11:58:02,00:00:00.7330720,First A,yes,Second 2,09/30/2021 11:58:03,09/30/2021 11:58:04,00:00:00.6999790,Second 2 A,70.0%,no,09/30/2021 11:58:07
119,yes,09/30/2021 11:58:07,00:00:00.2831110,09/30/2021 11:58:07,09/30/2021 11:58:08,00:00:00.5135660,First A,yes,Second 2,09/30/2021 11:58:09,09/30/2021 11:58:10,00:00:00.5994820,Second 2 A,70.0%,no,09/30/2021 11:58:13
120,yes,09/30/2021 11:58:13,00:00:00.4831300,09/30/2021 11:58:14,09/30/2021 11:58:14,00:00:00.6506860,First A,no,Second 1,09/30/2021 11:58:16,09/30/2021 11:58:16,00:00:00.7654250,Second 1 A,30.0%,no,09/30/2021 11:58:20
121,yes,09/30/2021 11:58:20,00:00:01.6826900,09/30/2021 11:58:21,09/30/2021 11:58:22,00:00:00.6559180,First A,yes,Second 2,09/30/2021 11:58:23,09/30/2021 11:58:24,00:00:00.7316870,Second 2 A,70.0%,yes,09/30/2021 11:58:27
122,yes,09/30/2021 11:58:27,00:00:01.1010020,09/30/2021 11:58:28,09/30/2021 11:58:29,00:00:01.0469300,First A,no,Second 1,09/30/2021 11:58:31,09/30/2021 11:58:32,00:00:00.8340460,Second 1 A,30.0%,no,09/30/2021 11:58:35
123,yes,09/30/2021 11:58:35,00:00:01.5725870,09/30/2021 11:58:36,09/30/2021 11:58:37,00:00:00.5128890,First A,yes,Second 2,09/30/2021 11:58:38,09/30/2021 11:58:39,00:00:00.7644950,Second 2 A,70.0%,no,09/30/2021 11:58:42
124,yes,09/30/2021 11:58:42,00:00:00.2840090,09/30/2021 11:58:42,09/30/2021 11:58:43,00:00:00.7296310,First A,yes,Second 2,09/30/2021 11:58:44,09/30/2021 11:58:45,00:00:00.5985760,Second 2 A,70.0%,yes,09/30/2021 11:58:48
125,yes,09/30/2021 11:58:48,00:00:00.3199250,09/30/2021 11:58:48,09/30/2021 11:58:50,00:00:01.1670710,First A,yes,Second 2,09/30/2021 11:58:51,09/30/2021 11:58:52,00:00:00.9155740,Second 2 A,70.0%,yes,09/30/2021 11:58:55
126,yes,09/30/2021 11:58:55,00:00:01.8887340,09/30/2021 11:58:57,09/30/2021 11:58:58,00:00:00.7670610,First A,no,Second 1,09/30/2021 11:58:59,09/30/2021 11:59:00,00:00:01.3127620,Second 1 A,30.0%,yes,09/30/2021 11:59:04
127,yes,09/30/2021 11:59:04,00:00:00.3515410,09/30/2021 11:59:04,09/30/2021 11:59:05,00:00:00.9585380,First A,yes,Second 2,09/30/2021 11:59:06,09/30/2021 11:59:07,00:00:00.6153270,Second 2 A,70.0%,no,09/30/2021 11:59:10
128,yes,09/30/2021 11:59:10,00:00:03.2752800,09/30/2021 11:59:13,09/30/2021 11:59:14,00:00:01.0357180,First A,yes,Second 2,09/30/2021 11:59:16,09/30/2021 11:59:17,00:00:00.8597320,Second 2 A,70.0%,yes,09/30/2021 11:59:20
129,yes,09/30/2021 11:59:20,00:00:01.4052420,09/30/2021 11:59:21,09/30/2021 11:59:22,00:00:01.1819070,First A,yes,Second 2,09/30/2021 11:59:24,09/30/2021 11:59:24,00:00:00.6658720,Second 2 A,70.0%,yes,09/30/2021 11:59:27
130,yes,09/30/2021 11:59:27,00:00:02.1751510,09/30/2021 11:59:30,09/30/2021 11:59:30,00:00:00.5667510,First A,yes,Second 2,09/30/2021 11:59:32,09/30/2021 11:59:32,00:00:00.6444660,Second 2 A,70.0%,no,09/30/2021 11:59:35
131,yes,09/30/2021 11:59:35,00:00:03.5110820,09/30/2021 11:59:39,09/30/2021 11:59:40,00:00:01.0992820,First A,yes,Second 2,09/30/2021 11:59:41,09/30/2021 11:59:42,00:00:00.5868040,Second 2 A,70.0%,no,09/30/2021 11:59:45
132,yes,09/30/2021 11:59:45,00:00:00.5403870,09/30/2021 11:59:46,09/30/2021 11:59:46,00:00:00.7980680,First A,yes,Second 2,09/30/2021 11:59:48,09/30/2021 11:59:49,00:00:00.8973820,Second 2 A,70.0%,no,09/30/2021 11:59:52
133,yes,09/30/2021 11:59:52,00:00:01.9373930,09/30/2021 11:59:54,09/30/2021 11:59:55,00:00:01.0028010,First B,no,Second 2,09/30/2021 11:59:56,09/30/2021 11:59:57,00:00:01.2275610,Second 2 A,70.0%,no,09/30/2021 12:00:00
134,yes,09/30/2021 12:00:00,00:00:04.8763510,09/30/2021 12:00:05,09/30/2021 12:00:07,00:00:01.3023290,First B,no,Second 2,09/30/2021 12:00:08,09/30/2021 12:00:09,00:00:01.0319310,Second 2 A,70.0%,no,09/30/2021 12:00:12
135,yes,09/30/2021 12:00:12,00:00:07.5306350,09/30/2021 12:00:20,09/30/2021 12:00:21,00:00:00.9873460,First A,yes,Second 2,09/30/2021 12:00:22,09/30/2021 12:00:24,00:00:01.5009000,Second 2 B,30.0%,no,09/30/2021 12:00:27
136,yes,09/30/2021 12:00:27,00:00:00.3847380,09/30/2021 12:00:27,09/30/2021 12:00:28,00:00:00.9775790,First A,yes,Second 2,09/30/2021 12:00:30,09/30/2021 12:00:30,00:00:00.7707630,Second 2 A,70.0%,yes,09/30/2021 12:00:33
137,yes,09/30/2021 12:00:33,00:00:00.9358080,09/30/2021 12:00:34,09/30/2021 12:00:35,00:00:00.7969030,First A,yes,Second 2,09/30/2021 12:00:37,09/30/2021 12:00:37,00:00:00.6802230,Second 2 A,70.0%,yes,09/30/2021 12:00:40
138,yes,09/30/2021 12:00:40,00:00:01.0344540,09/30/2021 12:00:41,09/30/2021 12:00:42,00:00:00.8176530,First A,yes,Second 2,09/30/2021 12:00:44,09/30/2021 12:00:44,00:00:00.5683750,Second 2 A,70.0%,yes,09/30/2021 12:00:47
139,yes,09/30/2021 12:00:47,00:00:03.8562270,09/30/2021 12:00:51,09/30/2021 12:00:52,00:00:01.0520840,First A,yes,Second 2,09/30/2021 12:00:54,09/30/2021 12:00:54,00:00:00.6021060,Second 2 A,70.0%,yes,09/30/2021 12:00:57
140,yes,09/30/2021 12:00:57,00:00:00.4529570,09/30/2021 12:00:58,09/30/2021 12:00:59,00:00:00.8799920,First A,yes,Second 2,09/30/2021 12:01:00,09/30/2021 12:01:01,00:00:01.3327630,Second 2 A,70.0%,yes,09/30/2021 12:01:04
141,yes,09/30/2021 12:01:04,00:00:00.8714300,09/30/2021 12:01:05,09/30/2021 12:01:06,00:00:00.9137800,First A,yes,Second 2,09/30/2021 12:01:08,09/30/2021 12:01:08,00:00:00.6474400,Second 2 A,70.0%,yes,09/30/2021 12:01:11
142,yes,09/30/2021 12:01:11,00:00:02.9759200,09/30/2021 12:01:14,09/30/2021 12:01:15,00:00:00.7828570,First A,yes,Second 2,09/30/2021 12:01:17,09/30/2021 12:01:17,00:00:00.6622680,Second 2 A,70.0%,no,09/30/2021 12:01:20
143,yes,09/30/2021 12:01:20,00:00:02.1979650,09/30/2021 12:01:23,09/30/2021 12:01:23,00:00:00.8699900,First A,yes,Second 2,09/30/2021 12:01:25,09/30/2021 12:01:26,00:00:00.8688150,Second 2 A,70.0%,yes,09/30/2021 12:01:29
144,yes,09/30/2021 12:01:29,00:00:00.0473090,09/30/2021 12:01:29,09/30/2021 12:01:30,00:00:01.0699490,First A,no,Second 1,09/30/2021 12:01:31,09/30/2021 12:01:32,00:00:00.9166830,Second 1 A,30.0%,no,09/30/2021 12:01:35
145,yes,09/30/2021 12:01:35,00:00:02.5738210,09/30/2021 12:01:38,09/30/2021 12:01:39,00:00:00.6655450,First A,no,Second 1,09/30/2021 12:01:40,09/30/2021 12:01:41,00:00:00.9839840,Second 1 A,30.0%,yes,09/30/2021 12:01:44
146,yes,09/30/2021 12:01:44,00:00:00.4548060,09/30/2021 12:01:45,09/30/2021 12:01:45,00:00:00.8798880,First A,yes,Second 2,09/30/2021 12:01:47,09/30/2021 12:01:47,00:00:00.5369840,Second 2 A,70.0%,yes,09/30/2021 12:01:50
147,yes,09/30/2021 12:01:50,00:00:03.6091000,09/30/2021 12:01:54,09/30/2021 12:01:55,00:00:00.7277050,First A,yes,Second 2,09/30/2021 12:01:56,09/30/2021 12:01:57,00:00:00.7789580,Second 2 A,70.0%,yes,09/30/2021 12:02:00
148,yes,09/30/2021 12:02:00,00:00:00.8333750,09/30/2021 12:02:01,09/30/2021 12:02:02,00:00:01.3351160,First A,yes,Second 2,09/30/2021 12:02:04,09/30/2021 12:02:04,00:00:00.6822040,Second 2 A,70.0%,yes,09/30/2021 12:02:07
149,yes,09/30/2021 12:02:07,00:00:01.2683840,09/30/2021 12:02:09,09/30/2021 12:02:09,00:00:00.7325890,First A,yes,Second 2,09/30/2021 12:02:11,09/30/2021 12:02:12,00:00:00.9134050,Second 2 A,70.0%,yes,09/30/2021 12:02:15
150,yes,09/30/2021 12:02:15,00:00:01.5352240,09/30/2021 12:02:16,09/30/2021 12:02:17,00:00:00.8491550,First A,yes,Second 2,09/30/2021 12:02:19,09/30/2021 12:02:19,00:00:00.5459650,Second 2 A,70.0%,yes,09/30/2021 12:02:22
151,yes,09/30/2021 12:02:22,00:00:00.4318880,09/30/2021 12:02:23,09/30/2021 12:02:24,00:00:00.9233830,First A,yes,Second 2,09/30/2021 12:02:25,09/30/2021 12:02:26,00:00:00.6193230,Second 2 A,70.0%,yes,09/30/2021 12:02:29
152,yes,09/30/2021 12:02:29,00:00:03.8760870,09/30/2021 12:02:33,09/30/2021 12:02:34,00:00:00.9179390,First A,no,Second 1,09/30/2021 12:02:35,09/30/2021 12:02:36,00:00:01.3316730,Second 1 A,30.0%,no,09/30/2021 12:02:39
153,yes,09/30/2021 12:02:39,00:00:03.2264120,09/30/2021 12:02:43,09/30/2021 12:02:44,00:00:00.8280840,First A,yes,Second 2,09/30/2021 12:02:45,09/30/2021 12:02:46,00:00:00.6134130,Second 2 A,70.0%,yes,09/30/2021 12:02:49
154,yes,09/30/2021 12:02:49,00:00:02.1758730,09/30/2021 12:02:51,09/30/2021 12:02:52,00:00:01.1174120,First A,yes,Second 2,09/30/2021 12:02:53,09/30/2021 12:02:54,00:00:00.7842660,Second 2 A,70.0%,yes,09/30/2021 12:02:57
155,yes,09/30/2021 12:02:57,00:00:04.0058270,09/30/2021 12:03:01,09/30/2021 12:03:02,00:00:00.7179090,First A,yes,Second 2,09/30/2021 12:03:03,09/30/2021 12:03:04,00:00:00.6164810,Second 2 A,70.0%,yes,09/30/2021 12:03:07
156,yes,09/30/2021 12:03:07,00:00:00.0520520,09/30/2021 12:03:07,09/30/2021 12:03:08,00:00:01.1987460,First A,yes,Second 2,09/30/2021 12:03:10,09/30/2021 12:03:10,00:00:00.6165240,Second 2 A,70.0%,no,09/30/2021 12:03:13
157,yes,09/30/2021 12:03:13,00:00:00.7009170,09/30/2021 12:03:14,09/30/2021 12:03:15,00:00:00.6979220,First A,yes,Second 2,09/30/2021 12:03:16,09/30/2021 12:03:17,00:00:00.5976470,Second 2 A,70.0%,yes,09/30/2021 12:03:20
158,yes,09/30/2021 12:03:20,00:00:01.4033570,09/30/2021 12:03:21,09/30/2021 12:03:23,00:00:01.3494220,First A,no,Second 1,09/30/2021 12:03:24,09/30/2021 12:03:25,00:00:00.8123720,Second 1 A,30.0%,no,09/30/2021 12:03:28
159,yes,09/30/2021 12:03:28,00:00:01.7309120,09/30/2021 12:03:30,09/30/2021 12:03:32,00:00:01.9066940,First A,yes,Second 2,09/30/2021 12:03:33,09/30/2021 12:03:34,00:00:00.7831620,Second 2 A,70.0%,yes,09/30/2021 12:03:37
160,yes,09/30/2021 12:03:37,00:00:05.3335250,09/30/2021 12:03:42,09/30/2021 12:03:43,00:00:00.6621010,First A,yes,Second 2,09/30/2021 12:03:44,09/30/2021 12:03:45,00:00:00.5505460,Second 2 A,70.0%,yes,09/30/2021 12:03:48
161,yes,09/30/2021 12:03:48,00:00:00.8545740,09/30/2021 12:03:49,09/30/2021 12:03:50,00:00:00.6304440,First A,yes,Second 2,09/30/2021 12:03:51,09/30/2021 12:03:52,00:00:00.5973210,Second 2 A,70.0%,yes,09/30/2021 12:03:55
162,yes,09/30/2021 12:03:55,00:00:08.0538260,09/30/2021 12:04:03,09/30/2021 12:04:03,00:00:00.7671690,First A,no,Second 1,09/30/2021 12:04:05,09/30/2021 12:04:06,00:00:00.6974210,Second 1 A,30.0%,no,09/30/2021 12:04:09
163,yes,09/30/2021 12:04:09,00:00:00.9849850,09/30/2021 12:04:10,09/30/2021 12:04:10,00:00:00.7709500,First A,yes,Second 2,09/30/2021 12:04:12,09/30/2021 12:04:12,00:00:00.5503930,Second 2 A,70.0%,yes,09/30/2021 12:04:16
164,yes,09/30/2021 12:04:16,00:00:00.1817940,09/30/2021 12:04:16,09/30/2021 12:04:16,00:00:00.6676530,First A,no,Second 1,09/30/2021 12:04:18,09/30/2021 12:04:19,00:00:00.9611140,Second 1 A,30.0%,no,09/30/2021 12:04:22
165,yes,09/30/2021 12:04:22,00:00:09.2391080,09/30/2021 12:04:31,09/30/2021 12:04:32,00:00:00.8002350,First A,no,Second 1,09/30/2021 12:04:33,09/30/2021 12:04:34,00:00:01.0980950,Second 1 A,30.0%,no,09/30/2021 12:04:37
166,yes,09/30/2021 12:04:37,00:00:04.7798720,09/30/2021 12:04:42,09/30/2021 12:04:43,00:00:00.6611320,First A,yes,Second 2,09/30/2021 12:04:44,09/30/2021 12:04:45,00:00:00.9178720,Second 2 A,70.0%,no,09/30/2021 12:04:48
167,yes,09/30/2021 12:04:48,00:00:08.0148710,09/30/2021 12:04:56,09/30/2021 12:04:57,00:00:00.9177570,First A,no,Second 1,09/30/2021 12:04:59,09/30/2021 12:05:00,00:00:00.7202890,Second 1 A,30.0%,no,09/30/2021 12:05:03
168,yes,09/30/2021 12:05:03,00:00:00.5827950,09/30/2021 12:05:03,09/30/2021 12:05:04,00:00:00.8837810,First A,yes,Second 2,09/30/2021 12:05:06,09/30/2021 12:05:06,00:00:00.9511450,Second 2 A,70.0%,yes,09/30/2021 12:05:09
169,yes,09/30/2021 12:05:09,00:00:00.1680760,09/30/2021 12:05:10,09/30/2021 12:05:10,00:00:00.7156970,First A,yes,Second 2,09/30/2021 12:05:12,09/30/2021 12:05:12,00:00:00.6002400,Second 2 A,70.0%,yes,09/30/2021 12:05:15
170,yes,09/30/2021 12:05:15,00:00:00.0507650,09/30/2021 12:05:16,09/30/2021 12:05:16,00:00:00.7618690,First A,yes,Second 2,09/30/2021 12:05:18,09/30/2021 12:05:19,00:00:00.8994870,Second 2 A,70.0%,yes,09/30/2021 12:05:22
171,yes,09/30/2021 12:05:22,00:00:03.0388540,09/30/2021 12:05:25,09/30/2021 12:05:25,00:00:00.6500070,First A,no,Second 1,09/30/2021 12:05:27,09/30/2021 12:05:28,00:00:00.6985650,Second 1 A,30.0%,no,09/30/2021 12:05:31
172,yes,09/30/2021 12:05:31,00:00:03.9309170,09/30/2021 12:05:35,09/30/2021 12:05:35,00:00:00.7967610,First A,yes,Second 2,09/30/2021 12:05:37,09/30/2021 12:05:38,00:00:00.6794910,Second 2 A,70.0%,no,09/30/2021 12:05:41
173,yes,09/30/2021 12:05:41,00:00:01.2203930,09/30/2021 12:05:42,09/30/2021 12:05:42,00:00:00.5964360,First A,no,Second 1,09/30/2021 12:05:44,09/30/2021 12:05:44,00:00:00.6339600,Second 1 A,30.0%,no,09/30/2021 12:05:47
174,yes,09/30/2021 12:05:47,00:00:02.1927620,09/30/2021 12:05:50,09/30/2021 12:05:50,00:00:00.6799350,First A,yes,Second 2,09/30/2021 12:05:52,09/30/2021 12:05:53,00:00:00.7963620,Second 2 A,70.0%,yes,09/30/2021 12:05:56
175,yes,09/30/2021 12:05:56,00:00:01.4549250,09/30/2021 12:05:57,09/30/2021 12:05:58,00:00:00.7649550,First A,yes,Second 2,09/30/2021 12:05:59,09/30/2021 12:06:00,00:00:00.5953880,Second 2 A,70.0%,yes,09/30/2021 12:06:03
176,yes,09/30/2021 12:06:03,00:00:03.5579530,09/30/2021 12:06:07,09/30/2021 12:06:07,00:00:00.6138620,First A,yes,Second 2,09/30/2021 12:06:09,09/30/2021 12:06:09,00:00:00.5160250,Second 2 A,70.0%,yes,09/30/2021 12:06:12
177,yes,09/30/2021 12:06:12,00:00:00.8494980,09/30/2021 12:06:13,09/30/2021 12:06:14,00:00:00.5176770,First A,yes,Second 2,09/30/2021 12:06:15,09/30/2021 12:06:16,00:00:00.9347280,Second 2 A,70.0%,yes,09/30/2021 12:06:19
178,yes,09/30/2021 12:06:19,00:00:02.2060590,09/30/2021 12:06:21,09/30/2021 12:06:22,00:00:00.5998730,First A,yes,Second 2,09/30/2021 12:06:23,09/30/2021 12:06:24,00:00:00.7342010,Second 2 A,70.0%,yes,09/30/2021 12:06:27
179,yes,09/30/2021 12:06:27,00:00:01.0174080,09/30/2021 12:06:28,09/30/2021 12:06:29,00:00:00.9469640,First A,no,Second 1,09/30/2021 12:06:31,09/30/2021 12:06:32,00:00:00.9626680,Second 1 A,30.0%,no,09/30/2021 12:06:35
180,no,09/30/2021 12:06:35,00:00:03.3039010,09/30/2021 12:06:38,09/30/2021 12:06:38,00:00:00.5873520,First A,yes,Second 2,09/30/2021 12:06:40,09/30/2021 12:06:41,00:00:00.6125320,Second 2 A,70.0%,yes,09/30/2021 12:06:43
181,no,09/30/2021 12:06:43,,,,,,,,,,,,,,01/01/0001 00:00:00
182,yes,09/30/2021 12:07:03,00:00:00.7035990,09/30/2021 12:07:04,09/30/2021 12:07:05,00:00:00.6835300,First A,no,Second 1,09/30/2021 12:07:06,09/30/2021 12:07:07,00:00:00.6617720,Second 1 A,30.0%,yes,09/30/2021 12:07:10
183,yes,09/30/2021 12:07:10,00:00:04.7761070,09/30/2021 12:07:14,09/30/2021 12:07:15,00:00:00.6115960,First A,yes,Second 2,09/30/2021 12:07:17,09/30/2021 12:07:17,00:00:00.5333780,Second 2 A,70.0%,no,09/30/2021 12:07:20
184,yes,09/30/2021 12:07:20,00:00:00.3367880,09/30/2021 12:07:20,09/30/2021 12:07:21,00:00:00.9839960,First A,no,Second 1,09/30/2021 12:07:23,09/30/2021 12:07:24,00:00:01.2042610,Second 1 A,30.0%,yes,09/30/2021 12:07:27
185,yes,09/30/2021 12:07:27,00:00:01.1346970,09/30/2021 12:07:28,09/30/2021 12:07:29,00:00:00.7626080,First A,yes,Second 2,09/30/2021 12:07:31,09/30/2021 12:07:31,00:00:00.5456050,Second 2 A,70.0%,no,09/30/2021 12:07:34
186,yes,09/30/2021 12:07:34,00:00:00.2500480,09/30/2021 12:07:34,09/30/2021 12:07:35,00:00:00.6334150,First A,yes,Second 2,09/30/2021 12:07:37,09/30/2021 12:07:37,00:00:00.5119900,Second 2 A,70.0%,yes,09/30/2021 12:07:40
187,yes,09/30/2021 12:07:40,00:00:00.3374430,09/30/2021 12:07:40,09/30/2021 12:07:41,00:00:00.8656590,First A,yes,Second 2,09/30/2021 12:07:43,09/30/2021 12:07:44,00:00:00.9183870,Second 2 A,70.0%,yes,09/30/2021 12:07:47
188,yes,09/30/2021 12:07:47,00:00:02.3695590,09/30/2021 12:07:49,09/30/2021 12:07:50,00:00:00.7404320,First A,no,Second 1,09/30/2021 12:07:51,09/30/2021 12:07:52,00:00:00.6962900,Second 1 A,30.0%,no,09/30/2021 12:07:55
189,yes,09/30/2021 12:07:55,00:00:06.7133320,09/30/2021 12:08:02,09/30/2021 12:08:02,00:00:00.7300090,First A,yes,Second 2,09/30/2021 12:08:04,09/30/2021 12:08:05,00:00:00.5645930,Second 2 A,70.0%,yes,09/30/2021 12:08:08
190,yes,09/30/2021 12:08:08,00:00:00.8493870,09/30/2021 12:08:08,09/30/2021 12:08:09,00:00:00.8481570,First A,no,Second 1,09/30/2021 12:08:11,09/30/2021 12:08:12,00:00:00.8640960,Second 1 A,30.0%,no,09/30/2021 12:08:15
191,yes,09/30/2021 12:08:15,00:00:02.3519830,09/30/2021 12:08:17,09/30/2021 12:08:18,00:00:00.8348190,First A,yes,Second 2,09/30/2021 12:08:19,09/30/2021 12:08:20,00:00:00.5337340,Second 2 A,70.0%,no,09/30/2021 12:08:23
192,yes,09/30/2021 12:08:23,00:00:03.4044140,09/30/2021 12:08:26,09/30/2021 12:08:27,00:00:00.8497980,First A,yes,Second 2,09/30/2021 12:08:29,09/30/2021 12:08:29,00:00:00.5956450,Second 2 A,70.0%,no,09/30/2021 12:08:32
193,yes,09/30/2021 12:08:32,00:00:00.1863610,09/30/2021 12:08:32,09/30/2021 12:08:33,00:00:00.5699810,First A,yes,Second 2,09/30/2021 12:08:34,09/30/2021 12:08:35,00:00:00.4831320,Second 2 A,70.0%,yes,09/30/2021 12:08:38
194,yes,09/30/2021 12:08:38,00:00:01.0165400,09/30/2021 12:08:39,09/30/2021 12:08:40,00:00:00.9025140,First A,no,Second 1,09/30/2021 12:08:41,09/30/2021 12:08:42,00:00:00.9153480,Second 1 A,30.0%,yes,09/30/2021 12:08:45
195,yes,09/30/2021 12:08:45,00:00:01.4204390,09/30/2021 12:08:47,09/30/2021 12:08:48,00:00:00.8955240,First A,yes,Second 2,09/30/2021 12:08:49,09/30/2021 12:08:50,00:00:00.6340810,Second 2 A,70.0%,no,09/30/2021 12:08:53
196,yes,09/30/2021 12:08:53,00:00:00.3526160,09/30/2021 12:08:53,09/30/2021 12:08:54,00:00:00.7127780,First A,yes,Second 2,09/30/2021 12:08:55,09/30/2021 12:08:56,00:00:00.6179460,Second 2 A,70.0%,yes,09/30/2021 12:08:59
197,yes,09/30/2021 12:08:59,00:00:00.6159820,09/30/2021 12:09:00,09/30/2021 12:09:00,00:00:00.8467190,First A,yes,Second 2,09/30/2021 12:09:02,09/30/2021 12:09:03,00:00:01.4615650,Second 2 A,70.0%,yes,09/30/2021 12:09:06
198,yes,09/30/2021 12:09:06,00:00:00.2460420,09/30/2021 12:09:07,09/30/2021 12:09:07,00:00:00.6198090,First A,yes,Second 2,09/30/2021 12:09:09,09/30/2021 12:09:09,00:00:00.5837570,Second 2 A,70.0%,no,09/30/2021 12:09:12
199,yes,09/30/2021 12:09:12,00:00:01.0051950,09/30/2021 12:09:13,09/30/2021 12:09:14,00:00:00.6167980,First A,no,Second 1,09/30/2021 12:09:16,09/30/2021 12:09:16,00:00:00.7469890,Second 1 A,30.0%,no,09/30/2021 12:09:19
200,yes,09/30/2021 12:09:19,00:00:02.9612510,09/30/2021 12:09:22,09/30/2021 12:09:23,00:00:00.9495440,First A,yes,Second 2,09/30/2021 12:09:25,09/30/2021 12:09:25,00:00:00.6489800,Second 2 A,70.0%,yes,09/30/2021 12:09:28
201,yes,09/30/2021 12:09:28,00:00:00.9648290,09/30/2021 12:09:29,09/30/2021 12:09:30,00:00:00.7993360,First A,yes,Second 2,09/30/2021 12:09:32,09/30/2021 12:09:32,00:00:00.6304770,Second 2 A,70.0%,yes,09/30/2021 12:09:35
202,yes,09/30/2021 12:09:35,00:00:03.0848640,09/30/2021 12:09:38,09/30/2021 12:09:39,00:00:00.6982230,First A,yes,Second 2,09/30/2021 12:09:41,09/30/2021 12:09:41,00:00:00.6948710,Second 2 A,70.0%,yes,09/30/2021 12:09:44
203,yes,09/30/2021 12:09:44,00:00:02.8908420,09/30/2021 12:09:47,09/30/2021 12:09:48,00:00:00.6650790,First A,yes,Second 2,09/30/2021 12:09:49,09/30/2021 12:09:50,00:00:00.5676300,Second 2 A,70.0%,yes,09/30/2021 12:09:53
204,yes,09/30/2021 12:09:53,00:00:00.5172170,09/30/2021 12:09:53,09/30/2021 12:09:54,00:00:00.5653750,First A,yes,Second 2,09/30/2021 12:09:55,09/30/2021 12:09:56,00:00:00.4954440,Second 2 A,70.0%,yes,09/30/2021 12:09:59
205,yes,09/30/2021 12:09:59,00:00:00.1681890,09/30/2021 12:09:59,09/30/2021 12:10:00,00:00:00.5326860,First A,yes,Second 2,09/30/2021 12:10:01,09/30/2021 12:10:02,00:00:00.5828930,Second 2 A,70.0%,yes,09/30/2021 12:10:05
